File: pdfgetxn3-examples/Pt/empty_capillary-00032.chi
empty_capillary-00032.tif: 2-theta Scan
2-Theta Angle (Degrees)

       1465
 0.0200039  0.0000000E+00
 0.0600117  0.0000000E+00
 0.100019  0.0000000E+00
 0.140027  0.0000000E+00
 0.180035  0.0000000E+00
 0.220043  0.0000000E+00
 0.260051  0.0000000E+00
 0.300058  0.0000000E+00
 0.340066  0.0000000E+00
 0.380074  0.0000000E+00
 0.420082  0.0000000E+00
 0.46009  0.0000000E+00
 0.500097  0.0000000E+00
 0.540105  0.0000000E+00
 0.580113  0.0000000E+00
 0.620121  0.0000000E+00
 0.660128  0.0000000E+00
 0.700136  0.0000000E+00
 0.740144  19233.7
 0.780152  20643.2
 0.82016  24089.7
 0.860167  28558.9
 0.900175  31960.9
 0.940183  34454.1
 0.980191  36778.3
 1.0202  38262
 1.06021  39748.2
 1.10021  41012.7
 1.14022  42334.6
 1.18023  43435.8
 1.22024  44202.7
 1.26025  45041.2
 1.30025  45871.2
 1.34026  46438.8
 1.38027  47125.6
 1.42028  47715.7
 1.46028  48320.5
 1.50029  48954.2
 1.5403  49354
 1.58031  49740.9
 1.62032  50056.8
 1.66032  50176.2
 1.70033  50306.5
 1.74034  50384.9
 1.78035  50660.9
 1.82035  51047.3
 1.86036  51264.1
 1.90037  51572.4
 1.94038  51953.4
 1.98039  52372.2
 2.02039  52850.3
 2.0604  53230.7
 2.10041  53638.8
 2.14042  54179.8
 2.18042  54730.2
 2.22043  55286.3
 2.26044  55876.2
 2.30045  56406.8
 2.34046  57007.7
 2.38046  57481.7
 2.42047  57916.2
 2.46048  58371.9
 2.50049  58744.6
 2.54049  58964.4
 2.5805  58850.1
 2.62051  58307
 2.66052  57311.8
 2.70053  55998.3
 2.74053  54481.5
 2.78054  52943.7
 2.82055  51571.2
 2.86056  50209.9
 2.90056  48903.7
 2.94057  47595
 2.98058  46337.4
 3.02059  45171.4
 3.0606  44067.9
 3.1006  42996.3
 3.14061  42024.8
 3.18062  41201.4
 3.22063  40502.5
 3.26063  39844.9
 3.30064  39220.7
 3.34065  38681.1
 3.38066  38196.9
 3.42067  37739.2
 3.46067  37346.9
 3.50068  37024.1
 3.54069  36644.2
 3.5807  36242.6
 3.6207  35796
 3.66071  35244.6
 3.70072  34601.4
 3.74073  33914.8
 3.78074  33149.5
 3.82074  32299.1
 3.86075  31452.2
 3.90076  30687.8
 3.94077  30016.4
 3.98077  29310.3
 4.02078  28653.6
 4.06079  28020.9
 4.1008  27429.5
 4.14081  26851.6
 4.18081  26268
 4.22082  25696.1
 4.26083  25159.1
 4.30084  24702.4
 4.34084  24261.8
 4.38085  23839.2
 4.42086  23408.3
 4.46087  23019.4
 4.50088  22664.3
 4.54088  22291.7
 4.58089  21964.5
 4.6209  21682.6
 4.66091  21436.5
 4.70091  21215.7
 4.74092  21011
 4.78093  20877
 4.82094  20750
 4.86095  20546.6
 4.90095  20355.7
 4.94096  20197.8
 4.98097  20066.5
 5.02098  19995.2
 5.06098  19838.7
 5.10099  19636.8
 5.141  19501.3
 5.18101  19375.1
 5.22102  19214.7
 5.26102  19040.4
 5.30103  18881.6
 5.34104  18701.9
 5.38105  18542.5
 5.42105  18408.8
 5.46106  18287.7
 5.50107  18166.3
 5.54108  18043.4
 5.58109  17970.8
 5.62109  17875.2
 5.6611  17818.3
 5.70111  17786.8
 5.74112  17754.5
 5.78113  17751.9
 5.82113  17757
 5.86114  17801.1
 5.90115  17899.7
 5.94116  18024.2
 5.98116  18108.2
 6.02117  18057.5
 6.06118  17865.5
 6.10119  17666.9
 6.14119  17527.5
 6.1812  17351.5
 6.22121  17167
 6.26122  16967.8
 6.30123  16720.3
 6.34123  16510.9
 6.38124  16323.5
 6.42125  16137.3
 6.46126  15900.8
 6.50127  15690
 6.54127  15522
 6.58128  15309.6
 6.62129  15116.1
 6.6613  14959.4
 6.7013  14807.6
 6.74131  14648.3
 6.78132  14557.4
 6.82133  14487.2
 6.86134  14434.6
 6.90134  14365.3
 6.94135  14269.7
 6.98136  14119.4
 7.02137  13978.2
 7.06137  13853.7
 7.10138  13739.1
 7.14139  13644.8
 7.1814  13552.6
 7.2214  13465.9
 7.26141  13426.1
 7.30142  13385.7
 7.34143  13277.1
 7.38144  13180.7
 7.42144  13097.1
 7.46145  13032.9
 7.50146  12968.9
 7.54147  12931.1
 7.58148  12886.7
 7.62148  12807.4
 7.66149  12743.9
 7.7015  12666.5
 7.74151  12611.9
 7.78151  12547.2
 7.82152  12473.2
 7.86153  12421.4
 7.90154  12372.8
 7.94155  12348.7
 7.98155  12313
 8.02156  12241.2
 8.06157  12195.3
 8.10158  12168.8
 8.14158  12140.7
 8.18159  12093.4
 8.2216  12048.4
 8.26161  11986.5
 8.30162  11956.2
 8.34162  11932.6
 8.38163  11921.4
 8.42164  11886.9
 8.46165  11840.4
 8.50165  11797.9
 8.54166  11748
 8.58167  11721.9
 8.62168  11685.7
 8.66169  11642.2
 8.70169  11617.6
 8.7417  11584.9
 8.78171  11542.8
 8.82172  11521.7
 8.86172  11503.6
 8.90173  11474.4
 8.94174  11442
 8.98175  11436.3
 9.02176  11411.2
 9.06176  11405
 9.10177  11411.4
 9.14178  11405.9
 9.18179  11413.2
 9.22179  11406.8
 9.2618  11365.4
 9.30181  11367.2
 9.34182  11393.2
 9.38183  11416.6
 9.42183  11432.8
 9.46184  11447.6
 9.50185  11437
 9.54186  11450.3
 9.58186  11474.3
 9.62187  11491.9
 9.66188  11518.7
 9.70189  11576.9
 9.7419  11643.2
 9.7819  11684.2
 9.82191  11693.1
 9.86192  11670.4
 9.90193  11648.5
 9.94193  11645.8
 9.98194  11682.9
 10.022  11721.1
 10.062  11740.8
 10.102  11754.6
 10.142  11755.5
 10.182  11739.8
 10.222  11728.9
 10.262  11763.6
 10.302  11741.5
 10.342  11720.2
 10.382  11732.5
 10.422  11729.6
 10.462  11723.8
 10.502  11719.8
 10.5421  11696
 10.5821  11669.1
 10.6221  11635.8
 10.6621  11628.3
 10.7021  11644.1
 10.7421  11622.8
 10.7821  11585
 10.8221  11576.7
 10.8621  11562.8
 10.9021  11556.2
 10.9421  11557.1
 10.9821  11548.7
 11.0221  11549.9
 11.0622  11545.5
 11.1022  11526
 11.1422  11505.3
 11.1822  11505.1
 11.2222  11487.7
 11.2622  11469.3
 11.3022  11453.1
 11.3422  11442
 11.3822  11448.9
 11.4222  11478.2
 11.4622  11502.4
 11.5022  11462.6
 11.5422  11355.5
 11.5823  11246
 11.6223  11142.3
 11.6623  11066
 11.7023  11021
 11.7423  11000.4
 11.7823  10981.8
 11.8223  10937.2
 11.8623  10877.8
 11.9023  10870.9
 11.9423  10853.6
 11.9823  10832
 12.0223  10826.3
 12.0623  10766.3
 12.1024  10634.9
 12.1424  10556.7
 12.1824  10541
 12.2224  10528
 12.2624  10490.1
 12.3024  10452.2
 12.3424  10417.7
 12.3824  10378
 12.4224  10346.8
 12.4624  10302.2
 12.5024  10267.4
 12.5424  10246.4
 12.5824  10225
 12.6225  10176.8
 12.6625  10130.3
 12.7025  10094.7
 12.7425  10077.2
 12.7825  10070.9
 12.8225  10030.6
 12.8625  9980.92
 12.9025  9990.03
 12.9425  9983.56
 12.9825  9932.17
 13.0225  9918.33
 13.0625  9914.23
 13.1026  9889.15
 13.1426  9871.05
 13.1826  9825.33
 13.2226  9768.45
 13.2626  9763.85
 13.3026  9723.65
 13.3426  9709.95
 13.3826  9723.91
 13.4226  9694.34
 13.4626  9695.56
 13.5026  9666.8
 13.5426  9638.2
 13.5826  9636.17
 13.6227  9616.37
 13.6627  9589.3
 13.7027  9576.87
 13.7427  9580.19
 13.7827  9556.56
 13.8227  9545.64
 13.8627  9539.16
 13.9027  9509.95
 13.9427  9487.82
 13.9827  9479.37
 14.0227  9448.71
 14.0627  9420.12
 14.1027  9420.86
 14.1428  9382.45
 14.1828  9382.99
 14.2228  9354.23
 14.2628  9321.14
 14.3028  9321.54
 14.3428  9322.62
 14.3828  9324.74
 14.4228  9315.11
 14.4628  9325.51
 14.5028  9337.68
 14.5428  9320.35
 14.5828  9275.43
 14.6228  9244.18
 14.6629  9259.92
 14.7029  9255.62
 14.7429  9256.76
 14.7829  9246.71
 14.8229  9254.39
 14.8629  9245.73
 14.9029  9231.71
 14.9429  9250.33
 14.9829  9253.1
 15.0229  9239.96
 15.0629  9272.07
 15.1029  9281.37
 15.1429  9276.7
 15.183  9246.1
 15.223  9232.57
 15.263  9195.44
 15.303  9161.93
 15.343  9167.2
 15.383  9164.43
 15.423  9168.07
 15.463  9181.88
 15.503  9191.38
 15.543  9174.9
 15.583  9134.97
 15.623  9117.55
 15.663  9107.15
 15.7031  9092.2
 15.7431  9087.76
 15.7831  9085.17
 15.8231  9062.67
 15.8631  9068.86
 15.9031  9071.6
 15.9431  9072.45
 15.9831  9048.64
 16.0231  9031.17
 16.0631  9025.38
 16.1031  9041.51
 16.1431  9050.62
 16.1831  9041.72
 16.2232  9045.48
 16.2632  9049.58
 16.3032  9049.38
 16.3432  9049.57
 16.3832  9044.13
 16.4232  9062.13
 16.4632  9060.49
 16.5032  9053.01
 16.5432  9051.6
 16.5832  9049.25
 16.6232  9050.35
 16.6632  9060.91
 16.7033  9057.81
 16.7433  9069.17
 16.7833  9071.68
 16.8233  9058.1
 16.8633  9089.95
 16.9033  9100.3
 16.9433  9110.58
 16.9833  9139.36
 17.0233  9142.44
 17.0633  9144.45
 17.1033  9107.94
 17.1433  9072.38
 17.1833  9068.27
 17.2234  9045.62
 17.2634  9049.5
 17.3034  9045.66
 17.3434  9034.51
 17.3834  9028.93
 17.4234  9013.33
 17.4634  8992.71
 17.5034  8985.84
 17.5434  8970.85
 17.5834  8960.5
 17.6234  8944.19
 17.6634  8922.86
 17.7034  8893.3
 17.7435  8890.56
 17.7835  8906.07
 17.8235  8903.06
 17.8635  8890.93
 17.9035  8874.18
 17.9435  8874.61
 17.9835  8875.86
 18.0235  8883.72
 18.0635  8875.65
 18.1035  8863.03
 18.1435  8826.16
 18.1835  8797.54
 18.2235  8792.71
 18.2636  8781.63
 18.3036  8745.7
 18.3436  8737.68
 18.3836  8752.56
 18.4236  8751.38
 18.4636  8731.88
 18.5036  8709.94
 18.5436  8673.58
 18.5836  8641.15
 18.6236  8649.83
 18.6636  8649
 18.7036  8646.62
 18.7436  8621.51
 18.7837  8618.73
 18.8237  8624.3
 18.8637  8614.63
 18.9037  8602.21
 18.9437  8582.46
 18.9837  8574.85
 19.0237  8559.95
 19.0637  8543.4
 19.1037  8530.76
 19.1437  8529.03
 19.1837  8524.75
 19.2237  8520.53
 19.2637  8522.27
 19.3038  8510.26
 19.3438  8518.1
 19.3838  8529.36
 19.4238  8515.5
 19.4638  8511.87
 19.5038  8518.32
 19.5438  8520.94
 19.5838  8512.23
 19.6238  8525.64
 19.6638  8516.24
 19.7038  8496.74
 19.7438  8501.18
 19.7839  8494.27
 19.8239  8482.51
 19.8639  8488.4
 19.9039  8496.33
 19.9439  8490.95
 19.9839  8483.34
 20.0239  8491.1
 20.0639  8495.97
 20.1039  8481.82
 20.1439  8471.23
 20.1839  8464.2
 20.2239  8464.28
 20.2639  8468.55
 20.304  8478.06
 20.344  8472.69
 20.384  8460.75
 20.424  8455.95
 20.464  8465.5
 20.504  8475.7
 20.544  8479.94
 20.584  8490.83
 20.624  8481.84
 20.664  8450.1
 20.704  8436.6
 20.744  8434.41
 20.784  8438.05
 20.8241  8426.36
 20.8641  8457.97
 20.9041  8440.04
 20.9441  8440.54
 20.9841  8422.71
 21.0241  8392.49
 21.0641  8375.23
 21.1041  8357.54
 21.1441  8365.27
 21.1841  8361.78
 21.2241  8360.37
 21.2641  8355.18
 21.3041  8358.86
 21.3442  8353.79
 21.3842  8321.97
 21.4242  8316.29
 21.4642  8317.17
 21.5042  8309.55
 21.5442  8298.66
 21.5842  8279.07
 21.6242  8273.06
 21.6642  8260.58
 21.7042  8261.49
 21.7442  8261.04
 21.7842  8261.5
 21.8242  8233.94
 21.8643  8217.12
 21.9043  8218.26
 21.9443  8222.92
 21.9843  8229.28
 22.0243  8190.7
 22.0643  8178.16
 22.1043  8173.26
 22.1443  8143.35
 22.1843  8142.92
 22.2243  8130.85
 22.2643  8112.74
 22.3043  8071.52
 22.3443  8064.66
 22.3844  8079.82
 22.4244  8062.01
 22.4644  8044.7
 22.5044  8031.5
 22.5444  8024.21
 22.5844  8005.98
 22.6244  8002.28
 22.6644  8008.6
 22.7044  7999.33
 22.7444  7977.32
 22.7844  7980.34
 22.8244  7980.81
 22.8644  7952.11
 22.9045  7945.56
 22.9445  7952.61
 22.9845  7945.85
 23.0245  7947.81
 23.0645  7921.57
 23.1045  7896.74
 23.1445  7896.98
 23.1845  7918.58
 23.2245  7902.27
 23.2645  7875.07
 23.3045  7849.73
 23.3445  7843.93
 23.3846  7843.36
 23.4246  7826.52
 23.4646  7830.12
 23.5046  7820.73
 23.5446  7791.93
 23.5846  7778.67
 23.6246  7774.08
 23.6646  7771.72
 23.7046  7768.03
 23.7446  7785.84
 23.7846  7778.26
 23.8246  7748.06
 23.8646  7738.01
 23.9047  7739.56
 23.9447  7734.44
 23.9847  7729.69
 24.0247  7712.12
 24.0647  7685.77
 24.1047  7706.76
 24.1447  7722.2
 24.1847  7719.53
 24.2247  7709.6
 24.2647  7692.65
 24.3047  7684.34
 24.3447  7668.79
 24.3847  7661.04
 24.4248  7662.68
 24.4648  7660.27
 24.5048  7665.1
 24.5448  7666.46
 24.5848  7653.42
 24.6248  7648.98
 24.6648  7640.72
 24.7048  7643.84
 24.7448  7642.61
 24.7848  7637.61
 24.8248  7635.09
 24.8648  7633.01
 24.9048  7642.93
 24.9449  7644.61
 24.9849  7619.28
 25.0249  7602.86
 25.0649  7599.37
 25.1049  7588.72
 25.1449  7603.14
 25.1849  7607.47
 25.2249  7584.44
 25.2649  7584.38
 25.3049  7569.51
 25.3449  7571.09
 25.3849  7574.23
 25.4249  7571.11
 25.465  7563.76
 25.505  7548.39
 25.545  7557.33
 25.585  7562.42
 25.625  7552.81
 25.665  7555.31
 25.705  7545.65
 25.745  7550.47
 25.785  7531.45
 25.825  7510.88
 25.865  7527.43
 25.905  7522.42
 25.945  7526.37
 25.9851  7521.37
 26.0251  7522.85
 26.0651  7517.02
 26.1051  7528.54
 26.1451  7512.1
 26.1851  7510.29
 26.2251  7523.14
 26.2651  7511.17
 26.3051  7504.29
 26.3451  7494.43
 26.3851  7508.69
 26.4251  7498.14
 26.4651  7496.5
 26.5052  7505.95
 26.5452  7512.18
 26.5852  7506.12
 26.6252  7508.83
 26.6652  7490.17
 26.7052  7486.92
 26.7452  7487.92
 26.7852  7482.37
 26.8252  7501.96
 26.8652  7511.58
 26.9052  7490.63
 26.9452  7476.57
 26.9853  7466.3
 27.0253  7470.97
 27.0653  7480.59
 27.1053  7458.57
 27.1453  7445.19
 27.1853  7456.54
 27.2253  7459.6
 27.2653  7449.2
 27.3053  7451.41
 27.3453  7455.3
 27.3853  7440.07
 27.4253  7419.27
 27.4653  7404
 27.5054  7401.62
 27.5454  7409.74
 27.5854  7382.11
 27.6254  7393.07
 27.6654  7366.97
 27.7054  7345.97
 27.7454  7327.84
 27.7854  7333.68
 27.8254  7340.22
 27.8654  7332.82
 27.9054  7342.07
 27.9454  7361.7
 27.9854  7347.55
 28.0255  7325.09
 28.0655  7315.5
 28.1055  7304.03
 28.1455  7274.05
 28.1855  7285.85
 28.2255  7273.34
 28.2655  7264.64
 28.3055  7261.65
 28.3455  7255.51
 28.3855  7269.76
 28.4255  7238.79
 28.4655  7236.23
 28.5055  7239.19
 28.5456  7242.98
 28.5856  7227.62
 28.6256  7233.21
 28.6656  7212.63
 28.7056  7207.62
 28.7456  7202.41
 28.7856  7192.85
 28.8256  7212.4
 28.8656  7190.74
 28.9056  7179.03
 28.9456  7188.91
 28.9856  7187.22
 29.0256  7176.64
 29.0657  7174.75
 29.1057  7177.45
 29.1457  7183.14
 29.1857  7160.38
 29.2257  7154.29
 29.2657  7149.87
 29.3057  7135.6
 29.3457  7112.91
 29.3857  7122.49
 29.4257  7131.05
 29.4657  7135.84
 29.5057  7148.15
 29.5458  7140.03
 29.5858  7116.56
 29.6258  7095.18
 29.6658  7087.77
 29.7058  7091.66
 29.7458  7079.96
 29.7858  7092.45
 29.8258  7079.45
 29.8658  7035.86
 29.9058  7031.82
 29.9458  7044.06
 29.9858  7028.18
 30.0258  7013.44
 30.0659  7031.93
 30.1059  7049.59
 30.1459  7044.02
 30.1859  7017.35
 30.2259  7005.06
 30.2659  7005.4
 30.3059  7005.8
 30.3459  7002.19
 30.3859  7000.45
 30.4259  7021.58
 30.4659  7000.96
 30.5059  7007.04
 30.5459  6997.15
 30.586  6970.47
 30.626  6959.64
 30.666  6979.15
 30.706  6980.14
 30.746  6992.37
 30.786  6973.53
 30.826  6962.2
 30.866  6957.44
 30.906  6921.56
 30.946  6932.85
 30.986  6955.58
 31.026  6943.72
 31.066  6924.61
 31.1061  6899.87
 31.1461  6915.97
 31.1861  6931.06
 31.2261  6929.15
 31.2661  6916.63
 31.3061  6912.91
 31.3461  6905
 31.3861  6925.61
 31.4261  6923.19
 31.4661  6911.95
 31.5061  6904.29
 31.5461  6892.8
 31.5861  6866.86
 31.6262  6868.75
 31.6662  6875.89
 31.7062  6864.21
 31.7462  6853.94
 31.7862  6862.26
 31.8262  6859.62
 31.8662  6831.9
 31.9062  6845.62
 31.9462  6850.69
 31.9862  6820.12
 32.0262  6840.53
 32.0662  6825.88
 32.1062  6827.25
 32.1463  6812.67
 32.1863  6801.7
 32.2263  6822.57
 32.2663  6824.76
 32.3063  6824.93
 32.3463  6807.92
 32.3863  6800.54
 32.4263  6781.78
 32.4663  6772.86
 32.5063  6785.68
 32.5463  6806.41
 32.5863  6773.13
 32.6264  6787.05
 32.6664  6776.73
 32.7064  6750.92
 32.7464  6771.35
 32.7864  6765.5
 32.8264  6776.5
 32.8664  6765.99
 32.9064  6773.44
 32.9464  6744.48
 32.9864  6742.8
 33.0264  6751.47
 33.0664  6734.94
 33.1064  6725.08
 33.1465  6726.63
 33.1865  6753.29
 33.2265  6731.41
 33.2665  6716.75
 33.3065  6717.91
 33.3465  6701.99
 33.3865  6701.72
 33.4265  6705.04
 33.4665  6687.53
 33.5065  6692.15
 33.5465  6695.55
 33.5865  6702.47
 33.6265  6680.36
 33.6666  6647.35
 33.7066  6644.28
 33.7466  6654.97
 33.7866  6656.84
 33.8266  6653.48
 33.8666  6655.02
 33.9066  6659.7
 33.9466  6659.01
 33.9866  6621.52
 34.0266  6628.79
 34.0666  6638.04
 34.1066  6617.14
 34.1466  6599.09
 34.1867  6600.08
 34.2267  6619.62
 34.2667  6607.06
 34.3067  6605.44
 34.3467  6626.4
 34.3867  6590.59
 34.4267  6621.78
 34.4667  6610.86
 34.5067  6575.07
 34.5467  6565.86
 34.5867  6582.42
 34.6267  6584.38
 34.6667  6592.47
 34.7068  6573.02
 34.7468  6557.25
 34.7868  6563.01
 34.8268  6555.32
 34.8668  6572.33
 34.9068  6558.02
 34.9468  6549.43
 34.9868  6539.51
 35.0268  6517.78
 35.0668  6526.94
 35.1068  6540.81
 35.1468  6523.22
 35.1868  6541.2
 35.2269  6536.73
 35.2669  6522.31
 35.3069  6530.48
 35.3469  6531.21
 35.3869  6503.4
 35.4269  6505.44
 35.4669  6516.21
 35.5069  6509.9
 35.5469  6513.48
 35.5869  6515.65
 35.6269  6508.88
 35.6669  6516.25
 35.7069  6478.01
 35.747  6511.62
 35.787  6471.46
 35.827  6501.76
 35.867  6510.3
 35.907  6485.1
 35.947  6484.42
 35.987  6488.6
 36.027  6494.43
 36.067  6451.18
 36.107  6486.05
 36.147  6484.74
 36.187  6460.51
 36.2271  6452.56
 36.2671  6462.01
 36.3071  6479.85
 36.3471  6461.17
 36.3871  6419.49
 36.4271  6415.8
 36.4671  6424.94
 36.5071  6414.59
 36.5471  6418.68
 36.5871  6424.96
 36.6271  6423.84
 36.6671  6416.1
 36.7071  6415.83
 36.7471  6420.93
 36.7872  6420.78
 36.8272  6416.05
 36.8672  6403.88
 36.9072  6393.52
 36.9472  6398.43
 36.9872  6396.99
 37.0272  6388.57
 37.0672  6413.1
 37.1072  6416.12
 37.1472  6405.75
 37.1872  6402.25
 37.2272  6414.68
 37.2672  6393.06
 37.3073  6360.59
 37.3473  6350.64
 37.3873  6389.27
 37.4273  6352.99
 37.4673  6355.33
 37.5073  6359.08
 37.5473  6344.74
 37.5873  6356.1
 37.6273  6355.15
 37.6673  6357.07
 37.7073  6376.22
 37.7473  6350.99
 37.7874  6329.15
 37.8274  6338.96
 37.8674  6337.14
 37.9074  6331
 37.9474  6322.94
 37.9874  6323.63
 38.0274  6268.5
 38.0674  6303.54
 38.1074  6318.73
 38.1474  6318.07
 38.1874  6306.35
 38.2274  6288.57
 38.2674  6265.65
 38.3075  6289.31
 38.3475  6282.23
 38.3875  6267.7
 38.4275  6272.98
 38.4675  6273.75
 38.5075  6284.9
 38.5475  6271.24
 38.5875  6275.65
 38.6275  6283.59
 38.6675  6286.73
 38.7075  6281.38
 38.7475  6364.14
 38.7875  6227.69
 38.8276  6256.75
 38.8676  6249.86
 38.9076  6224.55
 38.9476  6239.54
 38.9876  6221.57
 39.0276  6236.55
 39.0676  6214.3
 39.1076  6209.64
 39.1476  6192.57
 39.1876  6196.6
 39.2276  6184.99
 39.2676  6207.78
 39.3076  6209.31
 39.3477  6212.73
 39.3877  6198.72
 39.4277  6194.17
 39.4677  6193.54
 39.5077  6203.25
 39.5477  6177.51
 39.5877  6165.72
 39.6277  6171.71
 39.6677  6181.33
 39.7077  6174.75
 39.7477  6186.1
 39.7877  6167.91
 39.8278  6152.6
 39.8678  6156.35
 39.9078  6148.27
 39.9478  6159.4
 39.9878  6176.76
 40.0278  6127.71
 40.0678  6126.1
 40.1078  6111.97
 40.1478  6123.11
 40.1878  6108.08
 40.2278  6105.19
 40.2678  6125.71
 40.3078  6123.81
 40.3479  6118.99
 40.3879  6116.94
 40.4279  6130.17
 40.4679  6106.8
 40.5079  6082.6
 40.5479  6121.07
 40.5879  6097.37
 40.6279  6097.82
 40.6679  6093.43
 40.7079  6068.08
 40.7479  6088.64
 40.7879  6076.77
 40.8279  6080.8
 40.868  6097.77
 40.908  6069.21
 40.948  6056.91
 40.988  6080.24
 41.028  6069.26
 41.068  6059.41
 41.108  6086.97
 41.148  6066.59
 41.188  6048.24
 41.228  6043.05
 41.268  6043.27
 41.308  6034.34
 41.348  6070.87
 41.3881  6057.95
 41.4281  6022.24
 41.4681  6027.68
 41.5081  6030.07
 41.5481  6041.52
 41.5881  6037.66
 41.6281  6012.84
 41.6681  6009.62
 41.7081  6002.58
 41.7481  6033.16
 41.7881  5976.25
 41.8281  6020.23
 41.8681  6019.45
 41.9082  6012.96
 41.9482  6015.24
 41.9882  6026.02
 42.0282  5982.32
 42.0682  5993.16
 42.1082  5978.69
 42.1482  5992.49
 42.1882  6004.12
 42.2282  5984.87
 42.2682  5979.36
 42.3082  6014.49
 42.3482  5977.13
 42.3882  5976.99
 42.4283  5975.39
 42.4683  5948.37
 42.5083  5964.68
 42.5483  5976.99
 42.5883  5970.51
 42.6283  5983.71
 42.6683  5948.75
 42.7083  5921.37
 42.7483  5950.36
 42.7883  5943.75
 42.8283  5951.18
 42.8683  5947.6
 42.9083  5935.71
 42.9484  5935.22
 42.9884  5936.5
 43.0284  5937.44
 43.0684  5912.12
 43.1084  5920.52
 43.1484  5929.69
 43.1884  5917.95
 43.2284  5917.97
 43.2684  5897.93
 43.3084  5902.83
 43.3484  5902.45
 43.3884  5899.74
 43.4285  5891.34
 43.4685  5908.66
 43.5085  5899.24
 43.5485  5893.09
 43.5885  5923.18
 43.6285  5945.36
 43.6685  5927.86
 43.7085  5937.56
 43.7485  5898.09
 43.7885  5898.4
 43.8285  5886.66
 43.8685  5914.64
 43.9085  5905.62
 43.9486  5899.11
 43.9886  5911.41
 44.0286  5885.66
 44.0686  5859.54
 44.1086  5895.45
 44.1486  5913.67
 44.1886  5832.82
 44.2286  5840.45
 44.2686  5862.54
 44.3086  5864.14
 44.3486  5871.04
 44.3886  5830.7
 44.4286  5837.91
 44.4687  5859.01
 44.5087  5867.65
 44.5487  5852.45
 44.5887  5868.88
 44.6287  5859.27
 44.6687  5827.87
 44.7087  5805.03
 44.7487  5822.91
 44.7887  5828.56
 44.8287  5807.02
 44.8687  5843.04
 44.9087  5844.46
 44.9487  5808.45
 44.9888  5800.2
 45.0288  5802.74
 45.0688  5813.35
 45.1088  5833.68
 45.1488  5795.06
 45.1888  5821.38
 45.2288  5871.97
 45.2688  5798.1
 45.3088  5792.73
 45.3488  5772.82
 45.3888  5757.29
 45.4288  5776.27
 45.4688  5825.7
 45.5089  5774.26
 45.5489  5811.82
 45.5889  5820.09
 45.6289  5770.23
 45.6689  5768.68
 45.7089  5776.85
 45.7489  5784.89
 45.7889  5763.27
 45.8289  5772.69
 45.8689  5772.62
 45.9089  5772.75
 45.9489  5766.04
 45.9889  5761.06
 46.029  5759.41
 46.069  5771.63
 46.109  5733.31
 46.149  5750.85
 46.189  5776.32
 46.229  5762.99
 46.269  5727.31
 46.309  5741.34
 46.349  5712.96
 46.389  5704.96
 46.429  5708.52
 46.469  5736.4
 46.509  5741.47
 46.5491  5694.59
 46.5891  5684.42
 46.6291  5707.23
 46.6691  5747.57
 46.7091  5709.04
 46.7491  5694.41
 46.7891  5710.36
 46.8291  5689.42
 46.8691  5712.26
 46.9091  5696.64
 46.9491  5687.06
 46.9891  5695.1
 47.0292  5689.6
 47.0692  5673.77
 47.1092  5717.89
 47.1492  5696.37
 47.1892  5676.59
 47.2292  5660.95
 47.2692  5672.26
 47.3092  5672.1
 47.3492  5656.68
 47.3892  5723.73
 47.4292  5700.13
 47.4692  5669.76
 47.5092  5634.29
 47.5493  5636.27
 47.5893  5617.66
 47.6293  5650.41
 47.6693  5637.72
 47.7093  5621.04
 47.7493  5618.33
 47.7893  5603.39
 47.8293  5632.15
 47.8693  5563.95
 47.9093  5549.11
 47.9493  5590.72
 47.9893  5576.17
 48.0293  5540.73
 48.0694  5527.24
 48.1094  5479.97
 48.1494  5482.62
 48.1894  5512.38
 48.2294  5561.78
 48.2694  5582
 48.3094  5564.3
 48.3494  5544.32
 48.3894  5597.98
 48.4294  5569.45
 48.4694  5532.45
 48.5094  5548.76
 48.5494  5526.44
 48.5895  5530.92
 48.6295  5496.09
 48.6695  5488.11
 48.7095  5485.63
 48.7495  5524.99
 48.7895  5464.42
 48.8295  5439.22
 48.8695  5417.44
 48.9095  5465.06
 48.9495  5499.96
 48.9895  5459.34
 49.0295  5525.22
 49.0695  5437.64
 49.1096  5475.13
 49.1496  5461.39
 49.1896  5473.68
 49.2296  5483.41
 49.2696  5453.4
 49.3096  5427.4
 49.3496  5398.52
 49.3896  5376.43
 49.4296  5423.44
 49.4696  5391.77
 49.5096  5327.66
 49.5496  5335
 49.5896  5311.81
 49.6297  5420.03
 49.6697  5426.57
 49.7097  5390.64
 49.7497  5402.11
 49.7897  5406.23
 49.8297  5416.55
 49.8697  5407.87
 49.9097  5398.98
 49.9497  5372.37
 49.9897  5389.78
 50.0297  5395.15
 50.0697  5400.48
 50.1097  5353.24
 50.1498  5356.87
 50.1898  5405.34
 50.2298  5400.5
 50.2698  5397.84
 50.3098  5368.18
 50.3498  5371.71
 50.3898  5279.89
 50.4298  5345.04
 50.4698  5325.57
 50.5098  5363.19
 50.5498  5392.58
 50.5898  5443.68
 50.6299  5388.02
 50.6699  5410.07
 50.7099  5392.31
 50.7499  5388.58
 50.7899  5386.7
 50.8299  5385.95
 50.8699  5357.2
 50.9099  5378.23
 50.9499  5338.87
 50.9899  5325.13
 51.0299  5328.36
 51.0699  5348.66
 51.1099  5346.1
 51.15  5357.64
 51.19  5389.66
 51.23  5400.25
 51.27  5325.94
 51.31  5376.37
 51.35  5359.08
 51.39  5327.48
 51.43  5276.09
 51.47  5302.08
 51.51  5334.13
 51.55  5307.39
 51.59  5306.35
 51.63  5358.15
 51.6701  5366.2
 51.7101  5291.54
 51.7501  5344.14
 51.7901  5319.57
 51.8301  5344.96
 51.8701  5343.64
 51.9101  5293.37
 51.9501  5300.3
 51.9901  5302.91
 52.0301  5338.69
 52.0701  5302.58
 52.1101  5277.99
 52.1501  5185.96
 52.1902  5224.9
 52.2302  5268.63
 52.2702  5277.47
 52.3102  5262.66
 52.3502  5290.22
 52.3902  5274.77
 52.4302  5294.41
 52.4702  5279.19
 52.5102  5295.49
 52.5502  5289.61
 52.5902  4984.16
 52.6302  5121.67
 52.6703  5263.59
 52.7103  5268.89
 52.7503  5290.21
 52.7903  5273.6
 52.8303  5234.24
 52.8703  5221.1
 52.9103  5184.2
 52.9503  5197.49
 52.9903  5245.26
 53.0303  5185.08
 53.0703  5259.97
 53.1103  5268.75
 53.1503  5227.65
 53.1904  5310.03
 53.2304  5261.62
 53.2704  5199.78
 53.3104  5157.46
 53.3504  5202.68
 53.3904  5130.72
 53.4304  5182.26
 53.4704  5186.13
 53.5104  5237.93
 53.5504  5227.07
 53.5904  5235.75
 53.6304  5216.78
 53.6704  5198.17
 53.7105  5166.49
 53.7505  5312.47
 53.7905  5230.09
 53.8305  5187.56
 53.8705  5107.76
 53.9105  5075.36
 53.9505  5142.77
 53.9905  5232.31
 54.0305  5200.91
 54.0705  5206.84
 54.1105  5115.74
 54.1505  5084.6
 54.1905  5152.07
 54.2306  5171.51
 54.2706  5121.29
 54.3106  5195.82
 54.3506  5124.84
 54.3906  5174.52
 54.4306  5105.49
 54.4706  5183.63
 54.5106  5078.36
 54.5506  5169.86
 54.5906  5180.91
 54.6306  5103.49
 54.6706  5102.32
 54.7106  5056.25
 54.7507  5080.52
 54.7907  5000.79
 54.8307  5001.35
 54.8707  5198.86
 54.9107  5169.61
 54.9507  4991.63
 54.9907  5134.71
 55.0307  5038.02
 55.0707  5040.69
 55.1107  5183.35
 55.1507  5177.15
 55.1907  5099.8
 55.2307  5071.03
 55.2708  5056.05
 55.3108  4953.89
 55.3508  5116.17
 55.3908  5191.25
 55.4308  5000.86
 55.4708  4979.15
 55.5108  4876.76
 55.5508  4987.12
 55.5908  4966.69
 55.6308  5026.97
 55.6708  5029.19
 55.7108  4987.69
 55.7508  4980.35
 55.7909  4921.36
 55.8309  4986.71
 55.8709  4780.97
 55.9109  4997.94
 55.9509  4999.73
 55.9909  4977.5
 56.0309  4853.72
 56.0709  4777.45
 56.1109  4979.79
 56.1509  4949.82
 56.1909  4824.01
 56.2309  5013.21
 56.2709  4910.67
 56.311  4905.41
 56.351  4946.36
 56.391  4816.75
 56.431  4772.29
 56.471  4826.03
 56.511  4815.39
 56.551  4802.18
 56.591  4715.99
 56.631  5099.43
 56.671  4820.54
 56.711  4684.57
 56.751  4707.79
 56.791  4901.15
 56.8311  4715.24
 56.8711  4704.08
 56.9111  4637.02
 56.9511  4786.41
 56.9911  4682.73
 57.0311  4629.78
 57.0711  4561.89
 57.1111  4648.04
 57.1511  4540.9
 57.1911  4588.56
 57.2311  4367.95
 57.2711  4239.55
 57.3112  4484.57
 57.3512  4430.71
 57.3912  4415.12
 57.4312  4446.64
 57.4712  4391.91
 57.5112  4302.84
 57.5512  4457.56
 57.5912  4228.26
 57.6312  4147.19
 57.6712  3787.81
 57.7112  4076.33
 57.7512  4070.1
 57.7912  3724.84
 57.8313  3746.28
 57.8713  3963.43
 57.9113  4017.71
 57.9513  3996.47
 57.9913  4195.65
 58.0313  4075.78
 58.0713  3685.29
 58.1113  4050.81
 58.1513  3969.17
 58.1913  3520.19
 58.2313  3937.41
 58.2713  3417.67
 58.3113  2754.97
 58.3514  2417.34
 58.3914  1750.01
 58.4314  2003.56
 58.4714  1744.99
 58.5114  1976.11
 58.5514  1373.75
 58.5914  749.991