File: pdfgetxn3-examples/Pt/Pt_bulk-00055.chi
Pt_bulk-00055.tif: 2-theta Scan
2-Theta Angle (Degrees)

       1465
 0.0200039  0.0000000E+00
 0.0600117  0.0000000E+00
 0.100019  0.0000000E+00
 0.140027  0.0000000E+00
 0.180035  0.0000000E+00
 0.220043  0.0000000E+00
 0.260051  0.0000000E+00
 0.300058  0.0000000E+00
 0.340066  0.0000000E+00
 0.380074  0.0000000E+00
 0.420082  0.0000000E+00
 0.46009  0.0000000E+00
 0.500097  0.0000000E+00
 0.540105  0.0000000E+00
 0.580113  0.0000000E+00
 0.620121  0.0000000E+00
 0.660128  0.0000000E+00
 0.700136  0.0000000E+00
 0.740144  15606.3
 0.780152  17430.7
 0.82016  26170.7
 0.860167  42625.6
 0.900175  69195
 0.940183  86739.4
 0.980191  90710.4
 1.0202  87082
 1.06021  81884.8
 1.10021  78002
 1.14022  74065.4
 1.18023  70626.5
 1.22024  67906.3
 1.26025  65602.3
 1.30025  63809
 1.34026  62312.3
 1.38027  60868.9
 1.42028  59762.6
 1.46028  58913.1
 1.50029  58151.2
 1.5403  57460
 1.58031  56836.1
 1.62032  56253.1
 1.66032  55832.5
 1.70033  55761
 1.74034  56008.5
 1.78035  56280.4
 1.82035  55920
 1.86036  55033
 1.90037  54236.8
 1.94038  54022.2
 1.98039  54159.8
 2.02039  54539.5
 2.0604  54811.8
 2.10041  54909.6
 2.14042  54907.6
 2.18042  54914.8
 2.22043  55036.6
 2.26044  55252.1
 2.30045  55532.7
 2.34046  55950.5
 2.38046  56315.3
 2.42047  56778.6
 2.46048  57263.3
 2.50049  57784
 2.54049  58360.8
 2.5805  58674.8
 2.62051  58447.7
 2.66052  57709.9
 2.70053  56571
 2.74053  55331.6
 2.78054  54176.1
 2.82055  53211.9
 2.86056  52429.7
 2.90056  51677.4
 2.94057  50800.7
 2.98058  49655.8
 3.02059  48485.8
 3.0606  47526.1
 3.1006  46825
 3.14061  46290.1
 3.18062  45879
 3.22063  45528.4
 3.26063  45255.3
 3.30064  45082.4
 3.34065  45142.8
 3.38066  45386.5
 3.42067  45636.1
 3.46067  45736.2
 3.50068  45670.4
 3.54069  45609.5
 3.5807  45583.2
 3.6207  45542
 3.66071  45430.7
 3.70072  45267.8
 3.74073  45087.6
 3.78074  44868.8
 3.82074  44718.8
 3.86075  44567.6
 3.90076  44455.3
 3.94077  44387.6
 3.98077  44375.9
 4.02078  44466
 4.06079  44670.2
 4.1008  44934.4
 4.14081  45298.8
 4.18081  45779.1
 4.22082  46307
 4.26083  46873.7
 4.30084  47570.4
 4.34084  48448
 4.38085  49486.7
 4.42086  50700.1
 4.46087  52140.6
 4.50088  53799.1
 4.54088  55642.9
 4.58089  57792.9
 4.6209  60306.1
 4.66091  63177.2
 4.70091  66610.6
 4.74092  70672.4
 4.78093  75527.7
 4.82094  81526.8
 4.86095  88890.8
 4.90095  98145.5
 4.94096  110152
 4.98097  125641
 5.02098  146761
 5.06098  176283
 5.10099  218811
 5.141  288275
 5.18101  413274
 5.22102  665285
 5.26102  1.21468e+06
 5.30103  2.18127e+06
 5.34104  3.25078e+06
 5.38105  3.69319e+06
 5.42105  3.55912e+06
 5.46106  2.74754e+06
 5.50107  1.62769e+06
 5.54108  854492
 5.58109  482196
 5.62109  316894
 5.6611  236465
 5.70111  195970
 5.74112  174604
 5.78113  164234
 5.82113  162242
 5.86114  167471
 5.90115  181853
 5.94116  208500
 5.98116  254897
 6.02117  339815
 6.06118  497974
 6.10119  793397
 6.14119  1.25023e+06
 6.1812  1.72457e+06
 6.22121  1.94613e+06
 6.26122  1.73706e+06
 6.30123  1.24375e+06
 6.34123  753338
 6.38124  436273
 6.42125  263486
 6.46126  176580
 6.50127  130481
 6.54127  103841
 6.58128  87648.4
 6.62129  76848
 6.6613  69175.8
 6.7013  63713.2
 6.74131  59542.9
 6.78132  56321.5
 6.82133  53859.2
 6.86134  51854.2
 6.90134  50142.3
 6.94135  48523.6
 6.98136  46848.7
 7.02137  45415.1
 7.06137  44319.9
 7.10138  43383.5
 7.14139  42624.1
 7.1814  41974.1
 7.2214  41415.9
 7.26141  40970.2
 7.30142  40635.9
 7.34143  40382.4
 7.38144  40221.4
 7.42144  40138
 7.46145  40117
 7.50146  40081.4
 7.54147  40052
 7.58148  40117.1
 7.62148  40291
 7.66149  40526.6
 7.7015  40848.4
 7.74151  41287.8
 7.78151  41779.8
 7.82152  42357.9
 7.86153  43047.9
 7.90154  43851.5
 7.94155  44765.4
 7.98155  45817.4
 8.02156  47048.6
 8.06157  48467.8
 8.10158  50113.3
 8.14158  51998
 8.18159  54257.8
 8.2216  56978.1
 8.26161  60259.6
 8.30162  64392.5
 8.34162  69623.2
 8.38163  76322.6
 8.42164  85195.2
 8.46165  97243.3
 8.50165  114517
 8.54166  141048
 8.58167  184500
 8.62168  262570
 8.66169  408820
 8.70169  659165
 8.7417  1.00727e+06
 8.78171  1.30696e+06
 8.82172  1.37946e+06
 8.86172  1.16375e+06
 8.90173  815150
 8.94174  505807
 8.98175  309989
 9.02176  203858
 9.06176  147481
 9.10177  116997
 9.14178  99403.8
 9.18179  88412
 9.22179  81419.2
 9.2618  76789.2
 9.30181  73612.8
 9.34182  71528.2
 9.38183  70227.1
 9.42183  69529
 9.46184  69326.8
 9.50185  69547.5
 9.54186  70224.7
 9.58186  71361.4
 9.62187  73033.7
 9.66188  75328.8
 9.70189  78359.2
 9.7419  82273.3
 9.7819  86978.5
 9.82191  92596.4
 9.86192  99582.4
 9.90193  108530
 9.94193  120880
 9.98194  138169
 10.022  162736
 10.062  199828
 10.102  259471
 10.142  360451
 10.182  537411
 10.222  825044
 10.262  1.19452e+06
 10.302  1.51033e+06
 10.342  1.57967e+06
 10.382  1.36238e+06
 10.422  990396
 10.462  654555
 10.502  429720
 10.5421  306589
 10.5821  251611
 10.6221  244261
 10.6621  283255
 10.7021  367881
 10.7421  473748
 10.7821  537336
 10.8221  509874
 10.8621  403201
 10.9021  280863
 10.9421  188644
 10.9821  133165
 11.0221  102830
 11.0622  85676.2
 11.1022  75212
 11.1422  68393.5
 11.1822  63587.4
 11.2222  60027.4
 11.2622  57306.4
 11.3022  55153.6
 11.3422  53463.5
 11.3822  52149.2
 11.4222  51156.8
 11.4622  50302.2
 11.5022  49462
 11.5422  48529
 11.5823  47625.2
 11.6223  46963.8
 11.6623  46498.3
 11.7023  46204.9
 11.7423  46037.2
 11.7823  45973.4
 11.8223  46069.5
 11.8623  46364.2
 11.9023  46885
 11.9423  47801.8
 11.9823  49197.4
 12.0223  51375.8
 12.0623  52796.3
 12.1024  54699.1
 12.1424  57691.1
 12.1824  62604.7
 12.2224  70092.7
 12.2624  81845.4
 12.3024  100278
 12.3424  128130
 12.3824  163967
 12.4224  197693
 12.4624  213493
 12.5024  201836
 12.5424  170033
 12.5824  133499
 12.6225  104233
 12.6625  84865.3
 12.7025  73130.8
 12.7425  66396.5
 12.7825  62668.8
 12.8225  60763.4
 12.8625  60087.9
 12.9025  60265.6
 12.9425  61081.8
 12.9825  62504.9
 13.0225  64500.8
 13.0625  67090.6
 13.1026  70492
 13.1426  74855.7
 13.1826  80466.1
 13.2226  87803.1
 13.2626  97657.6
 13.3026  111459
 13.3426  131632
 13.3826  163051
 13.4226  214227
 13.4626  296447
 13.5026  413619
 13.5426  541133
 13.5826  623452
 13.6227  617671
 13.6627  534512
 13.7027  430732
 13.7427  356707
 13.7827  335188
 13.8227  367866
 13.8627  441986
 13.9027  521866
 13.9427  557318
 13.9827  519291
 14.0227  424655
 14.0627  317781
 14.1027  230203
 14.1428  170669
 14.1828  133106
 14.2228  109732
 14.2628  94998.2
 14.3028  85306.3
 14.3428  78618.5
 14.3828  73943.5
 14.4228  70588.6
 14.4628  68124.6
 14.5028  66345.6
 14.5428  65101.6
 14.5828  64285.9
 14.6228  63865.6
 14.6629  63867.8
 14.7029  64272.7
 14.7429  65091.4
 14.7829  66422
 14.8229  68349.7
 14.8629  71072.5
 14.9029  74860.7
 14.9429  80166.6
 14.9829  87741.7
 15.0229  98946
 15.0629  116108
 15.1029  143280
 15.1429  185685
 15.183  246322
 15.223  315516
 15.263  367260
 15.303  374015
 15.343  331781
 15.383  264235
 15.423  199352
 15.463  151137
 15.503  119769
 15.543  100312
 15.583  88468.5
 15.623  81409
 15.663  77386.7
 15.7031  75505.5
 15.7431  75284.2
 15.7831  76483.9
 15.8231  79217.4
 15.8631  83770.2
 15.9031  90752.6
 15.9431  101225
 15.9831  117106
 16.0231  141633
 16.0631  179259
 16.1031  232716
 16.1431  296322
 16.1831  349950
 16.2232  367717
 16.2632  339509
 16.3032  279964
 16.3432  214934
 16.3832  161803
 16.4232  124400
 16.4632  99838.5
 16.5032  83925.6
 16.5432  73449.6
 16.5832  66389.9
 16.6232  61478.3
 16.6632  57938.6
 16.7033  55356.6
 16.7433  53446
 16.7833  51967.8
 16.8233  50863.4
 16.8633  50082.5
 16.9033  49515
 16.9433  49141.8
 16.9833  48930.7
 17.0233  48855.5
 17.0633  48876.6
 17.1033  49036.4
 17.1433  49422.1
 17.1833  50032.3
 17.2234  50912.5
 17.2634  52120.7
 17.3034  53686.7
 17.3434  55799.2
 17.3834  58738
 17.4234  62843.8
 17.4634  68872.8
 17.5034  77967.1
 17.5434  91216.9
 17.5834  108099
 17.6234  124737
 17.6634  134603
 17.7034  133218
 17.7435  121961
 17.7835  106733
 17.8235  93080.9
 17.8635  83377.6
 17.9035  77602.6
 17.9435  74887.5
 17.9835  74398.9
 18.0235  75626.8
 18.0635  78363.9
 18.1035  82505.9
 18.1435  88498.8
 18.1835  96995.4
 18.2235  109166
 18.2636  126982
 18.3036  153458
 18.3436  192077
 18.3836  243406
 18.4236  299472
 18.4636  342232
 18.5036  355004
 18.5436  336768
 18.5836  304253
 18.6236  277831
 18.6636  267188
 18.7036  266896
 18.7436  262956
 18.7837  244418
 18.8237  211999
 18.8637  174926
 18.9037  142224
 18.9437  117504
 18.9837  100236
 19.0237  88438.5
 19.0637  80418.5
 19.1037  74906.1
 19.1437  71029.3
 19.1837  68268.7
 19.2237  66346.9
 19.2637  65102.7
 19.3038  64475.9
 19.3438  64440.2
 19.3838  65014.9
 19.4238  66318.7
 19.4638  68557
 19.5038  72060.4
 19.5438  77375.9
 19.5838  85231.5
 19.6238  96330.2
 19.6638  110503
 19.7038  125515
 19.7438  136740
 19.7839  139428
 19.8239  132324
 19.8639  118546
 19.9039  103271
 19.9439  90107.9
 19.9839  80283.7
 20.0239  73611.6
 20.0639  69485.4
 20.1039  67248.8
 20.1439  66590.1
 20.1839  67243.1
 20.2239  69264.7
 20.2639  72979.4
 20.304  78971.4
 20.344  88155.6
 20.384  101392
 20.424  118315
 20.464  135419
 20.504  147474
 20.544  151032
 20.584  147811
 20.624  143205
 20.664  141133
 20.704  140881
 20.744  138337
 20.784  130222
 20.8241  116866
 20.8641  101586
 20.9041  87639.1
 20.9441  76536.3
 20.9841  68372.1
 21.0241  62581.4
 21.0641  58491.3
 21.1041  55624.8
 21.1441  53606
 21.1841  52169
 21.2241  51180.2
 21.2641  50581.9
 21.3041  50282.1
 21.3442  50240.7
 21.3842  50516.9
 21.4242  51339.1
 21.4642  52551.2
 21.5042  54514.2
 21.5442  57497.9
 21.5842  61431.4
 21.6242  65746.1
 21.6642  69052.9
 21.7042  70049.3
 21.7442  68580.7
 21.7842  65703.4
 21.8242  62844
 21.8643  60943.8
 21.9043  60244.3
 21.9443  60685.8
 21.9843  62239.8
 22.0243  64828.6
 22.0643  68647.3
 22.1043  74073.5
 22.1443  81755.6
 22.1843  92447.4
 22.2243  106772
 22.2643  124224
 22.3043  141878
 22.3443  154875
 22.3844  159447
 22.4244  155874
 22.4644  148208
 22.5044  140537
 22.5444  133901
 22.5844  126686
 22.6244  117283
 22.6644  105951
 22.7044  94446.3
 22.7444  84457.4
 22.7844  76723.4
 22.8244  71090.6
 22.8644  67169.7
 22.9045  64600.2
 22.9445  63082
 22.9845  62384.6
 23.0245  62414.7
 23.0645  63167.1
 23.1045  64619.5
 23.1445  66924.4
 23.1845  70372.6
 23.2245  75435.6
 23.2645  82792.8
 23.3045  93083.3
 23.3445  106107
 23.3846  119636
 23.4246  129715
 23.4646  132392
 23.5046  126834
 23.5446  115915
 23.5846  103760
 23.6246  93355.9
 23.6646  85890.1
 23.7046  81338
 23.7446  79357.5
 23.7846  79754.4
 23.8246  82551.5
 23.8646  88077.3
 23.9047  96846.1
 23.9447  109146
 23.9847  124034
 24.0247  138138
 24.0647  146457
 24.1047  145306
 24.1447  134958
 24.1847  119325
 24.2247  102996
 24.2647  88848.2
 24.3047  77819.3
 24.3447  69576.3
 24.3847  63454.2
 24.4248  58914.4
 24.4648  55548.5
 24.5048  53014.4
 24.5448  51074.2
 24.5848  49550.5
 24.6248  48369.7
 24.6648  47449.9
 24.7048  46770
 24.7448  46287.1
 24.7848  46009.3
 24.8248  45914.9
 24.8648  46011.9
 24.9048  46332.6
 24.9449  46859.1
 24.9849  47527.4
 25.0249  48248.6
 25.0649  48837.9
 25.1049  49083.8
 25.1449  48984.3
 25.1849  48680.5
 25.2249  48392.5
 25.2649  48314
 25.3049  48580.9
 25.3449  49224
 25.3849  50352.9
 25.4249  52012.8
 25.465  54354.8
 25.505  57562.3
 25.545  61861.2
 25.585  67162.7
 25.625  73003
 25.665  78666.1
 25.705  83568.6
 25.745  87622.8
 25.785  91169.2
 25.825  93930.4
 25.865  94719.6
 25.905  92388.2
 25.945  86901.5
 25.9851  79610.2
 26.0251  72304.4
 26.0651  66002
 26.1051  61054
 26.1451  57467.6
 26.1851  54980.9
 26.2251  53358.8
 26.2651  52433.2
 26.3051  52130.3
 26.3451  52425.7
 26.3851  53303.2
 26.4251  54868.3
 26.4651  57251.3
 26.5052  60467.3
 26.5452  64242
 26.5852  67956.4
 26.6252  70584.5
 26.6652  71239.1
 26.7052  69855.3
 26.7452  67169.7
 26.7852  64180.9
 26.8252  61683.6
 26.8652  60078.4
 26.9052  59501.9
 26.9452  60024.7
 26.9853  61764.8
 27.0253  64872.4
 27.0653  69498.8
 27.1053  75392.8
 27.1453  81594.4
 27.1853  86599.2
 27.2253  89074.1
 27.2653  88684.6
 27.3053  86249
 27.3453  82780.9
 27.3853  78757.4
 27.4253  74257.6
 27.4653  69419.2
 27.5054  64630.9
 27.5454  60347.6
 27.5854  56866
 27.6254  54219.5
 27.6654  52311.2
 27.7054  50979.4
 27.7454  50071.8
 27.7854  49596.5
 27.8254  49537.3
 27.8654  49863.3
 27.9054  50552.8
 27.9454  51687.7
 27.9854  53272
 28.0255  55119.1
 28.0655  56883.2
 28.1055  58149.2
 28.1455  58566.4
 28.1855  58190.6
 28.2255  57373.1
 28.2655  56649.8
 28.3055  56379.5
 28.3455  56782.1
 28.3855  57972.1
 28.4255  60139.8
 28.4655  63427.6
 28.5055  67907
 28.5456  73427.6
 28.5856  79353.9
 28.6256  84475.7
 28.6656  87660.1
 28.7056  88523.1
 28.7456  87457.6
 28.7856  85062
 28.8256  81576
 28.8656  77045
 28.9056  71796.5
 28.9456  66392.7
 28.9856  61400.9
 29.0256  57202.5
 29.0657  53883.1
 29.1057  51339.2
 29.1457  49435.5
 29.1857  48057.7
 29.2257  47126.9
 29.2657  46597.2
 29.3057  46481
 29.3457  46792.4
 29.3857  47555
 29.4257  48668.5
 29.4657  49856.2
 29.5057  50701.6
 29.5458  50804.8
 29.5858  50153.1
 29.6258  48993.9
 29.6658  47767.8
 29.7058  46757.1
 29.7458  46184.2
 29.7858  46133.8
 29.8258  46594.7
 29.8658  47546.6
 29.9058  48922.5
 29.9458  50482.1
 29.9858  51797.3
 30.0258  52374.2
 30.0659  51928.2
 30.1059  50564.2
 30.1459  48616.4
 30.1859  46528.3
 30.2259  44611.7
 30.2659  43015.9
 30.3059  41762.4
 30.3459  40804.7
 30.3859  40103.9
 30.4259  39635
 30.4659  39351.7
 30.5059  39272.7
 30.5459  39343.1
 30.586  39538.5
 30.626  39942
 30.666  40587.3
 30.706  41452.3
 30.746  42554.8
 30.786  43797.3
 30.826  44970.6
 30.866  45832.9
 30.906  46243.3
 30.946  46256.2
 30.986  46088.1
 31.026  46034.4
 31.066  46259.8
 31.1061  46942.8
 31.1461  48168.3
 31.1861  50037.6
 31.2261  52560.8
 31.2661  55576.2
 31.3061  58612.9
 31.3461  61046.3
 31.3861  62278.6
 31.4261  62165.3
 31.4661  60995.6
 31.5061  59194.3
 31.5461  56994.3
 31.5861  54631.3
 31.6262  52354.7
 31.6662  50297.6
 31.7062  48615.9
 31.7462  47373.4
 31.7862  46548.7
 31.8262  46130.4
 31.8662  46106.7
 31.9062  46470.3
 31.9462  47227.9
 31.9862  48437.9
 32.0262  50097.9
 32.0662  52078.8
 32.1062  54029.7
 32.1463  55468.9
 32.1863  55958.3
 32.2263  55466.7
 32.2663  54251.2
 32.3063  52814.8
 32.3463  51595.2
 32.3863  50816.5
 32.4263  50609.1
 32.4663  51028.5
 32.5063  52070.3
 32.5463  53575.7
 32.5863  55172
 32.6264  56383.8
 32.6664  56841.5
 32.7064  56404.3
 32.7464  55161.2
 32.7864  53387.2
 32.8264  51312
 32.8664  49097.2
 32.9064  46956.8
 32.9464  45010
 32.9864  43309
 33.0264  41864
 33.0664  40701
 33.1064  39790
 33.1465  39053
 33.1865  38464.5
 33.2265  38034.9
 33.2665  37713.8
 33.3065  37476.5
 33.3465  37348.7
 33.3865  37315.6
 33.4265  37388.3
 33.4665  37546.3
 33.5065  37790.2
 33.5465  38129.8
 33.5865  38627.6
 33.6265  39325.6
 33.6666  40229.9
 33.7066  41384.7
 33.7466  42812.2
 33.7866  44490.5
 33.8266  46250.7
 33.8666  47916.5
 33.9066  49342.5
 33.9466  50347.2
 33.9866  50823.8
 34.0266  50607.2
 34.0666  49670.9
 34.1066  48165.1
 34.1466  46301.6
 34.1867  44482.2
 34.2267  42871.7
 34.2667  41559.9
 34.3067  40575.6
 34.3467  39901.7
 34.3867  39509.3
 34.4267  39387.9
 34.4667  39477.7
 34.5067  39787.6
 34.5467  40174.8
 34.5867  40518.3
 34.6267  40654.2
 34.6667  40502.9
 34.7068  40067
 34.7468  39487.2
 34.7868  38913.8
 34.8268  38467
 34.8668  38208.5
 34.9068  38137.9
 34.9468  38293.4
 34.9868  38582.2
 35.0268  38849.7
 35.0668  38937.6
 35.1068  38729.3
 35.1468  38204.9
 35.1868  37509
 35.2269  36735.9
 35.2669  36012.5
 35.3069  35376.6
 35.3469  34892.6
 35.3869  34521.8
 35.4269  34272.3
 35.4669  34102
 35.5069  34003
 35.5469  34034.2
 35.5869  34126.4
 35.6269  34300
 35.6669  34588.1
 35.7069  34943.1
 35.747  35325.9
 35.787  35753.1
 35.827  36206.8
 35.867  36697.9
 35.907  37216.5
 35.947  37819.3
 35.987  38570.8
 36.027  39551.6
 36.067  40809.8
 36.107  42294.1
 36.147  43929.5
 36.187  45547.5
 36.2271  46819.4
 36.2671  47562
 36.3071  47620
 36.3471  47131.5
 36.3871  46183.7
 36.4271  44960.8
 36.4671  43598.7
 36.5071  42237.8
 36.5471  41009.7
 36.5871  39951.6
 36.6271  39158.8
 36.6671  38623.4
 36.7071  38266
 36.7471  38096.5
 36.7872  38139
 36.8272  38344.7
 36.8672  38648.5
 36.9072  38979.5
 36.9472  39217.2
 36.9872  39264.7
 37.0272  39153.6
 37.0672  38930.5
 37.1072  38741.2
 37.1472  38675.6
 37.1872  38795
 37.2272  39129.1
 37.2672  39619.7
 37.3073  40229.1
 37.3473  40802.3
 37.3873  41190.8
 37.4273  41306.8
 37.4673  41098.1
 37.5073  40621.8
 37.5473  39869.1
 37.5873  38994
 37.6273  38063.4
 37.6673  37195.4
 37.7073  36438
 37.7473  35775.9
 37.7874  35265.3
 37.8274  34888.5
 37.8674  34646.9
 37.9074  34522.6
 37.9474  34486
 37.9874  34531.7
 38.0274  34502.7
 38.0674  34623.8
 38.1074  34621.1
 38.1474  34489.4
 38.1874  34358
 38.2274  34277.2
 38.2674  34314.6
 38.3075  34365.8
 38.3475  34550.5
 38.3875  34835.2
 38.4275  35098.4
 38.4675  35262.3
 38.5075  35291.1
 38.5475  35186.4
 38.5875  34916.3
 38.6275  34551.6
 38.6675  34168.8
 38.7075  33780.2
 38.7475  33347.4
 38.7875  33169.6
 38.8276  32999
 38.8676  32908
 38.9076  32948.7
 38.9476  33069.5
 38.9876  33296.2
 39.0276  33645.5
 39.0676  34032.4
 39.1076  34417.6
 39.1476  34640
 39.1876  34766
 39.2276  34715
 39.2676  34580.9
 39.3076  34448.9
 39.3477  34363.1
 39.3877  34423.5
 39.4277  34594.5
 39.4677  34839.6
 39.5077  35080.7
 39.5477  35203.5
 39.5877  35093.7
 39.6277  34733.1
 39.6677  34187.7
 39.7077  33552
 39.7477  32945.6
 39.7877  32394.6
 39.8278  31930.6
 39.8678  31534.8
 39.9078  31228.5
 39.9478  30983.8
 39.9878  30835.9
 40.0278  30733.5
 40.0678  30688
 40.1078  30668.1
 40.1478  30745.3
 40.1878  30771.4
 40.2278  30801.5
 40.2678  30865
 40.3078  30908.7
 40.3479  30966.2
 40.3879  31071.8
 40.4279  31259.3
 40.4679  31465.5
 40.5079  31787.6
 40.5479  32174.4
 40.5879  32627.6
 40.6279  33081.7
 40.6679  33443.5
 40.7079  33707.8
 40.7479  33818.6
 40.7879  33786
 40.8279  33510.5
 40.868  33167.7
 40.908  32764.3
 40.948  32436.8
 40.988  32191.5
 41.028  32025.9
 41.068  31942.5
 41.108  31948.1
 41.148  32018.1
 41.188  32131.3
 41.228  32288
 41.268  32442.7
 41.308  32553
 41.348  32616.5
 41.3881  32675
 41.4281  32778.2
 41.4681  32924.5
 41.5081  33203
 41.5481  33510.8
 41.5881  33829.5
 41.6281  34045.6
 41.6681  34134.5
 41.7081  34069.9
 41.7481  33794
 41.7881  33411.9
 41.8281  32972.1
 41.8681  32500
 41.9082  32070.4
 41.9482  31677.1
 41.9882  31355.4
 42.0282  31095.4
 42.0682  30910.1
 42.1082  30792.3
 42.1482  30720
 42.1882  30709.3
 42.2282  30738.6
 42.2682  30792.4
 42.3082  30850.9
 42.3482  30946.3
 42.3882  31091.6
 42.4283  31239.7
 42.4683  31458.3
 42.5083  31752.7
 42.5483  32108.9
 42.5883  32506
 42.6283  32844.7
 42.6683  33107.4
 42.7083  33187.4
 42.7483  33128.1
 42.7883  32908.8
 42.8283  32542.6
 42.8683  32070.9
 42.9083  31577.4
 42.9484  31086.2
 42.9884  30667.4
 43.0284  30283
 43.0684  29973
 43.1084  29751.3
 43.1484  29582.6
 43.1884  29454.2
 43.2284  29344.4
 43.2684  29206.1
 43.3084  29110.5
 43.3484  28970.3
 43.3884  28810.2
 43.4285  28694.6
 43.4685  28526.4
 43.5085  28405.6
 43.5485  28321.4
 43.5885  28292.7
 43.6285  28215.3
 43.6685  28125.2
 43.7085  27993
 43.7485  27829.3
 43.7885  27628.5
 43.8285  27446.8
 43.8685  27312.8
 43.9085  27174.6
 43.9486  27105.4
 43.9886  27015.3
 44.0286  26971.7
 44.0686  26940.1
 44.1086  26912.7
 44.1486  26887
 44.1886  26934
 44.2286  27023.9
 44.2686  27087.9
 44.3086  27173.2
 44.3486  27325
 44.3886  27494.6
 44.4286  27652.5
 44.4687  27847.1
 44.5087  28098.4
 44.5487  28378
 44.5887  28609.5
 44.6287  28839.4
 44.6687  28981.8
 44.7087  29017.3
 44.7487  28981.4
 44.7887  28849.3
 44.8287  28690.1
 44.8687  28543.2
 44.9087  28406.4
 44.9487  28275.5
 44.9888  28206.6
 45.0288  28154.3
 45.0688  28160.2
 45.1088  28236.7
 45.1488  28336.6
 45.1888  28434.9
 45.2288  28535.9
 45.2688  28546.4
 45.3088  28544.5
 45.3488  28536.8
 45.3888  28498.3
 45.4288  28484.4
 45.4688  28503.2
 45.5089  28568.7
 45.5489  28636.7
 45.5889  28683.6
 45.6289  28665.4
 45.6689  28602.8
 45.7089  28476.8
 45.7489  28288
 45.7889  28074.1
 45.8289  27855.5
 45.8689  27671.4
 45.9089  27481
 45.9489  27311.2
 45.9889  27222.3
 46.029  27112.1
 46.069  27066.7
 46.109  27005.3
 46.149  26974.6
 46.189  27002.3
 46.229  26991.4
 46.269  26990.4
 46.309  27030.2
 46.349  27108.4
 46.389  27171.2
 46.429  27313.2
 46.469  27482.1
 46.509  27598.2
 46.5491  27698.9
 46.5891  27762
 46.6291  27746.3
 46.6691  27707.2
 46.7091  27638.6
 46.7491  27519.1
 46.7891  27344.5
 46.8291  27238.4
 46.8691  27133.5
 46.9091  27046.2
 46.9491  27026.2
 46.9891  26986
 47.0292  27010.1
 47.0692  26985.8
 47.1092  27017.5
 47.1492  26975.2
 47.1892  26935.2
 47.2292  26869.8
 47.2692  26799.8
 47.3092  26726.5
 47.3492  26691.6
 47.3892  26641.8
 47.4292  26583.4
 47.4692  26527.8
 47.5092  26431.3
 47.5493  26341.9
 47.5893  26177.4
 47.6293  26020.4
 47.6693  25868.6
 47.7093  25710.5
 47.7493  25572.7
 47.7893  25428.2
 47.8293  25263.7
 47.8693  25191.6
 47.9093  25107.2
 47.9493  25090.8
 47.9893  25056.6
 48.0293  24989.5
 48.0694  24946.5
 48.1094  24851.7
 48.1494  24792.8
 48.1894  25027.2
 48.2294  25125.1
 48.2694  25245.1
 48.3094  25317.6
 48.3494  25362.3
 48.3894  25427.8
 48.4294  25418.8
 48.4694  25386.5
 48.5094  25241.7
 48.5494  24945.8
 48.5895  24769.5
 48.6295  24568.7
 48.6695  24352.6
 48.7095  24144.5
 48.7495  23994
 48.7895  23707.7
 48.8295  23605.3
 48.8695  23595.9
 48.9095  23555.2
 48.9495  23515.6
 48.9895  23497.7
 49.0295  23388.9
 49.0695  23385.8
 49.1096  23383.1
 49.1496  23310.5
 49.1896  23332.5
 49.2296  23384.5
 49.2696  23367.3
 49.3096  23377.3
 49.3496  23281.5
 49.3896  23176.2
 49.4296  23062.9
 49.4696  22900.3
 49.5096  22758.1
 49.5496  22595.3
 49.5896  22452.7
 49.6297  22564.7
 49.6697  22588.2
 49.7097  22610.4
 49.7497  22602.2
 49.7897  22606.9
 49.8297  22618.5
 49.8697  22627.8
 49.9097  22676.1
 49.9497  22776.6
 49.9897  23069.4
 50.0297  23013.4
 50.0697  23020.6
 50.1097  23194.6
 50.1498  23278.4
 50.1898  23336.7
 50.2298  23476.1
 50.2698  23472.9
 50.3098  23467.6
 50.3498  23456.1
 50.3898  23426.3
 50.4298  23356.4
 50.4698  23327.4
 50.5098  23285.5
 50.5498  23300.3
 50.5898  23323.9
 50.6299  23348.1
 50.6699  23341.3
 50.7099  23367.9
 50.7499  23361.2
 50.7899  23328.1
 50.8299  23344.8
 50.8699  23317.4
 50.9099  23330
 50.9499  23351.9
 50.9899  23323.9
 51.0299  23287.7
 51.0699  23338.8
 51.1099  23291.2
 51.15  23160.6
 51.19  23088
 51.23  22968
 51.27  22796.1
 51.31  22699.5
 51.35  22571.2
 51.39  22511.7
 51.43  22446.3
 51.47  22358
 51.51  22266.5
 51.55  22227.6
 51.59  22210.9
 51.63  22129.3
 51.6701  22144.6
 51.7101  22131.6
 51.7501  22168.3
 51.7901  22175.7
 51.8301  22168.1
 51.8701  22263.8
 51.9101  22272.6
 51.9501  22255.1
 51.9901  22346.2
 52.0301  22271
 52.0701  22236.6
 52.1101  22286.4
 52.1501  22165.3
 52.1902  22091.4
 52.2302  21946.7
 52.2702  21901.8
 52.3102  21918.8
 52.3502  21837.2
 52.3902  21816
 52.4302  21817.2
 52.4702  21740.6
 52.5102  21626.9
 52.5502  21560.7
 52.5902  21507.4
 52.6302  21388.1
 52.6703  21443.5
 52.7103  21416.5
 52.7503  21356.3
 52.7903  21312.3
 52.8303  21240.2
 52.8703  21226.2
 52.9103  21138.7
 52.9503  21048
 52.9903  20909
 53.0303  20895.5
 53.0703  20868
 53.1103  20827.7
 53.1503  20702.6
 53.1904  20770.4
 53.2304  20756
 53.2704  20752.6
 53.3104  20743.2
 53.3504  20755.6
 53.3904  20754.4
 53.4304  20701.7
 53.4704  20743.3
 53.5104  20748.1
 53.5504  20730.8
 53.5904  20749.9
 53.6304  20757.6
 53.6704  20700.9
 53.7105  20717.5
 53.7505  20625
 53.7905  20557.9
 53.8305  20517
 53.8705  20424.5
 53.9105  20378.8
 53.9505  20233.5
 53.9905  20221.4
 54.0305  20124.8
 54.0705  20102.1
 54.1105  20044.3
 54.1505  20034.7
 54.1905  19935.6
 54.2306  19846.5
 54.2706  19819.6
 54.3106  19727.2
 54.3506  19736.4
 54.3906  19667.1
 54.4306  19641.4
 54.4706  19576.3
 54.5106  19537
 54.5506  19442.7
 54.5906  19470.9
 54.6306  19350.4
 54.6706  19347.7
 54.7106  19307.6
 54.7507  19205.7
 54.7907  19273.9
 54.8307  19259.2
 54.8707  19263.3
 54.9107  19118.5
 54.9507  19117.4
 54.9907  19123.4
 55.0307  19029.2
 55.0707  19133.4
 55.1107  19110.3
 55.1507  19049.8
 55.1907  19071.8
 55.2307  18986.9
 55.2708  19075.4
 55.3108  18974.6
 55.3508  19036.2
 55.3908  19024.4
 55.4308  19078.4
 55.4708  19119.7
 55.5108  18986.2
 55.5508  18938.5
 55.5908  18948.5
 55.6308  18918
 55.6708  18893.4
 55.7108  18933.8
 55.7508  18871.7
 55.7909  18886.3
 55.8309  18864.2
 55.8709  18857.7
 55.9109  18811.9
 55.9509  18823.7
 55.9909  18802.1
 56.0309  18710.4
 56.0709  18700.3
 56.1109  18627.8
 56.1509  18610.7
 56.1909  18507.1
 56.2309  18433.6
 56.2709  18455
 56.311  18267.4
 56.351  18125.9
 56.391  18049.6
 56.431  17998.9
 56.471  17797.2
 56.511  17584.3
 56.551  17718.2
 56.591  17670.8
 56.631  17581
 56.671  17345.9
 56.711  17325.8
 56.751  17295.1
 56.791  17272.9
 56.8311  17216.5
 56.8711  17062.3
 56.9111  17009.5
 56.9511  16775.2
 56.9911  16701.7
 57.0311  16627.8
 57.0711  16504
 57.1111  16423.3
 57.1511  16442.4
 57.1911  16325.5
 57.2311  16011.7
 57.2711  15946.4
 57.3112  15759
 57.3512  15546.8
 57.3912  15360.9
 57.4312  15221.4
 57.4712  15085.7
 57.5112  14729.6
 57.5512  14509.4
 57.5912  14237.3
 57.6312  13450.1
 57.6712  12869.7
 57.7112  13288.6
 57.7512  13369.4
 57.7912  12898.2
 57.8313  12690.6
 57.8713  12932.1
 57.9113  13153.5
 57.9513  13043.1
 57.9913  13238.7
 58.0313  13238.4
 58.0713  13335.1
 58.1113  12844.4
 58.1513  12603.1
 58.1913  11566.3
 58.2313  11030.6
 58.2713  10363.6
 58.3113  8876.07
 58.3514  6978.7
 58.3914  5858.44
 58.4314  5138.33
 58.4714  4848.72
 58.5114  3311.32
 58.5514  1390.26
 58.5914 -1001.85