File: pdfgetxn3-examples/Pt/series/Pt_bulk_ramp03-00908.chi
Pt_bulk_ramp03-00908.tif: 2-theta Scan
2-Theta Angle (Degrees)

       1465
 0.0200039  0.0000000E+00
 0.0600117  0.0000000E+00
 0.100019  0.0000000E+00
 0.140027  0.0000000E+00
 0.180035  0.0000000E+00
 0.220043  0.0000000E+00
 0.260051  0.0000000E+00
 0.300058  0.0000000E+00
 0.340066  0.0000000E+00
 0.380074  0.0000000E+00
 0.420082  0.0000000E+00
 0.46009  0.0000000E+00
 0.500097  0.0000000E+00
 0.540105  0.0000000E+00
 0.580113  0.0000000E+00
 0.620121  0.0000000E+00
 0.660128  0.0000000E+00
 0.700136  0.0000000E+00
 0.740144  16238.5
 0.780152  18925
 0.82016  29869.3
 0.860167  49457.6
 0.900175  75837.1
 0.940183  90084.9
 0.980191  90128
 1.0202  84804.6
 1.06021  78587.2
 1.10021  74129.8
 1.14022  69667.3
 1.18023  66017.6
 1.22024  63206.8
 1.26025  60715.6
 1.30025  58691.1
 1.34026  56982.8
 1.38027  55407.2
 1.42028  54277
 1.46028  53266.9
 1.50029  52327.4
 1.5403  51629
 1.58031  50889.5
 1.62032  50186.2
 1.66032  49704.3
 1.70033  49514.6
 1.74034  49834
 1.78035  50227.9
 1.82035  49909.6
 1.86036  48880.8
 1.90037  47810.3
 1.94038  47436.6
 1.98039  47526.1
 2.02039  47855.4
 2.0604  48117.4
 2.10041  48085.2
 2.14042  47817.8
 2.18042  47563.8
 2.22043  47597.8
 2.26044  47776.3
 2.30045  47886.8
 2.34046  48068.4
 2.38046  48217.5
 2.42047  48425
 2.46048  48722.5
 2.50049  49102.1
 2.54049  49652
 2.5805  50068
 2.62051  50196.8
 2.66052  49980.5
 2.70053  49265.1
 2.74053  48343.1
 2.78054  47440.5
 2.82055  46728.4
 2.86056  46194
 2.90056  45729.8
 2.94057  45100.8
 2.98058  44135.7
 3.02059  43048
 3.0606  42118.9
 3.1006  41429.4
 3.14061  40924.4
 3.18062  40490.1
 3.22063  40171.2
 3.26063  39925.5
 3.30064  39793.3
 3.34065  39906.7
 3.38066  40259.7
 3.42067  40704.2
 3.46067  40880.8
 3.50068  40785.7
 3.54069  40616.9
 3.5807  40558.9
 3.6207  40567.8
 3.66071  40548.3
 3.70072  40454.1
 3.74073  40364.9
 3.78074  40212.9
 3.82074  39975
 3.86075  39782.5
 3.90076  39642.6
 3.94077  39548.6
 3.98077  39522.9
 4.02078  39622.5
 4.06079  39863.9
 4.1008  40145.2
 4.14081  40425.1
 4.18081  40723.3
 4.22082  41105.4
 4.26083  41612.7
 4.30084  42222.2
 4.34084  42940.1
 4.38085  43834.2
 4.42086  44932.9
 4.46087  46253.8
 4.50088  47772.7
 4.54088  49455.8
 4.58089  51432.5
 4.6209  53733.6
 4.66091  56379.2
 4.70091  59524
 4.74092  63312.9
 4.78093  67907.4
 4.82094  73579.1
 4.86095  80594.5
 4.90095  89500
 4.94096  101095
 4.98097  116071
 5.02098  136532
 5.06098  165079
 5.10099  205718
 5.141  270709
 5.18101  384583
 5.22102  608951
 5.26102  1.10147e+06
 5.30103  2.02788e+06
 5.34104  3.16007e+06
 5.38105  3.67813e+06
 5.42105  3.6783e+06
 5.46106  3.13519e+06
 5.50107  2.00376e+06
 5.54108  1.05073e+06
 5.58109  564794
 5.62109  349536
 5.6611  247448
 5.70111  197245
 5.74112  170900
 5.78113  157723
 5.82113  153842
 5.86114  157299
 5.90115  169219
 5.94116  192129
 5.98116  232951
 6.02117  308610
 6.06118  450599
 6.10119  722887
 6.14119  1.17752e+06
 6.1812  1.71767e+06
 6.22121  2.07478e+06
 6.26122  1.97531e+06
 6.30123  1.49224e+06
 6.34123  926207
 6.38124  529147
 6.42125  306014
 6.46126  194721
 6.50127  136967
 6.54127  104602
 6.58128  85507
 6.62129  73095.4
 6.6613  64517.3
 6.7013  58488.7
 6.74131  53953
 6.78132  50446.1
 6.82133  47683.9
 6.86134  45396.7
 6.90134  43462.7
 6.94135  41820.4
 6.98136  40324.2
 7.02137  39097.2
 7.06137  38118.2
 7.10138  37243.1
 7.14139  36518.7
 7.1814  35921
 7.2214  35382.9
 7.26141  34953.6
 7.30142  34583.7
 7.34143  34304.2
 7.38144  34118.4
 7.42144  34006.4
 7.46145  33915.4
 7.50146  33815.1
 7.54147  33754
 7.58148  33754.8
 7.62148  33815.6
 7.66149  33973.3
 7.7015  34238
 7.74151  34563.6
 7.78151  34923.4
 7.82152  35363.7
 7.86153  35884.9
 7.90154  36544.3
 7.94155  37341.1
 7.98155  38231.3
 8.02156  39255.8
 8.06157  40442.7
 8.10158  41850.7
 8.14158  43512.7
 8.18159  45519.3
 8.2216  47968.9
 8.26161  50989.1
 8.30162  54762.2
 8.34162  59541.3
 8.38163  65773.2
 8.42164  74050.5
 8.46165  85285.2
 8.50165  101176
 8.54166  125103
 8.58167  163374
 8.62168  230533
 8.66169  356520
 8.70169  583578
 8.7417  939604
 8.78171  1.32122e+06
 8.82172  1.52452e+06
 8.86172  1.39923e+06
 8.90173  1.04213e+06
 8.94174  660396
 8.98175  392586
 9.02176  241361
 9.06176  161251
 9.10177  119051
 9.14178  95426.8
 9.18179  81175.2
 9.22179  72297.5
 9.2618  66450.7
 9.30181  62480.8
 9.34182  59860.6
 9.38183  58115.7
 9.42183  57054
 9.46184  56572.2
 9.50185  56535.2
 9.54186  56960.9
 9.58186  57792.5
 9.62187  59085.4
 9.66188  60923.8
 9.70189  63354.1
 9.7419  66569.2
 9.7819  70663.1
 9.82191  75848
 9.86192  82592.2
 9.90193  91298.9
 9.94193  103094
 9.98194  119333
 10.022  142024
 10.062  175560
 10.102  228481
 10.142  316482
 10.182  471296
 10.222  737863
 10.262  1.12706e+06
 10.302  1.54788e+06
 10.342  1.77721e+06
 10.382  1.67354e+06
 10.422  1.29774e+06
 10.462  875673
 10.502  556583
 10.5421  368258
 10.5821  274799
 10.6221  242921
 10.6621  262664
 10.7021  335239
 10.7421  451381
 10.7821  557156
 10.8221  579987
 10.8621  495547
 10.9021  357051
 10.9421  233218
 10.9821  151767
 11.0221  106448
 11.0622  81611.6
 11.1022  67472.3
 11.1422  58876.2
 11.1822  53174.6
 11.2222  49166
 11.2622  46218
 11.3022  43941.5
 11.3422  42133.9
 11.3822  40716
 11.4222  39583.4
 11.4622  38674.4
 11.5022  37874.6
 11.5422  37146.6
 11.5823  36547.5
 11.6223  36085.4
 11.6623  35720
 11.7023  35460.4
 11.7423  35309.2
 11.7823  35301.9
 11.8223  35440.8
 11.8623  35726.2
 11.9023  36192.7
 11.9423  36976.8
 11.9823  38250.2
 12.0223  40299.2
 12.0623  41720.3
 12.1024  43543.4
 12.1424  46303.4
 12.1824  50838.9
 12.2224  57580
 12.2624  68036.1
 12.3024  84469.1
 12.3424  110421
 12.3824  147700
 12.4224  190571
 12.4624  223165
 12.5024  227398
 12.5424  201071
 12.5824  158534
 12.6225  118384
 12.6625  89371.2
 12.7025  71002.3
 12.7425  60158.8
 12.7825  53919.1
 12.8225  50417.2
 12.8625  48645.8
 12.9025  48036.4
 12.9425  48266.5
 12.9825  49178.2
 13.0225  50672.5
 13.0625  52821.3
 13.1026  55746.2
 13.1426  59594.3
 13.1826  64629.2
 13.2226  71278.5
 13.2626  80271.3
 13.3026  92776
 13.3426  110736
 13.3826  138160
 13.4226  182391
 13.4626  255509
 13.5026  370026
 13.5426  520408
 13.5826  659456
 13.6227  719661
 13.6627  669823
 13.7027  551730
 13.7427  435597
 13.7827  370059
 13.8227  370120
 13.8627  431986
 13.9027  531600
 13.9427  615809
 13.9827  627575
 14.0227  550840
 14.0627  425377
 14.1027  302516
 14.1428  210881
 14.1828  151105
 14.2228  114083
 14.2628  91371.1
 14.3028  77092.1
 14.3428  67726.4
 14.3828  61444.9
 14.4228  57087.7
 14.4628  54002.2
 14.5028  51794
 14.5428  50229.9
 14.5828  49180.1
 14.6228  48611.9
 14.6629  48484.3
 14.7029  48779
 14.7429  49471.5
 14.7829  50666.6
 14.8229  52465.2
 14.8629  55050.7
 14.9029  58656.3
 14.9429  63666.7
 14.9829  70685.9
 15.0229  80773.6
 15.0629  95857.7
 15.1029  119521
 15.1429  157413
 15.183  216570
 15.223  296969
 15.263  379930
 15.303  429009
 15.343  416552
 15.383  350592
 15.423  265255
 15.463  191091
 15.503  138937
 15.543  105884
 15.583  85953.5
 15.623  74201.2
 15.663  67392.4
 15.7031  63768
 15.7431  62411.3
 15.7831  62858.9
 15.8231  65043.3
 15.8631  69136.7
 15.9031  75614.9
 15.9431  85388.5
 15.9831  100039
 16.0231  122432
 16.0631  157238
 16.1031  210054
 16.1431  282723
 16.1831  363064
 16.2232  421426
 16.2632  427860
 16.3032  378174
 16.3432  298017
 16.3832  219114
 16.4232  158020
 16.4632  116493
 16.5032  89702.1
 16.5432  72533
 16.5832  61354.3
 16.6232  53871.8
 16.6632  48717.5
 16.7033  45054.4
 16.7433  42401.5
 16.7833  40437.7
 16.8233  38989.1
 16.8633  37895.6
 16.9033  37088.3
 16.9433  36503.4
 16.9833  36159.1
 17.0233  35980
 17.0633  35936.5
 17.1033  36077.5
 17.1433  36386.4
 17.1833  36884.2
 17.2234  37632
 17.2634  38675.1
 17.3034  40103.8
 17.3434  42041.6
 17.3834  44706.6
 17.4234  48426.2
 17.4634  53846.1
 17.5034  62039
 17.5434  74484.1
 17.5834  92311.9
 17.6234  114179
 17.6634  134068
 17.7034  143525
 17.7435  138115
 17.7835  121435
 17.8235  101433
 17.8635  84468.7
 17.9035  72731.4
 17.9435  65779.3
 17.9835  62433.5
 18.0235  61763.9
 18.0635  63276.6
 18.1035  66673.5
 18.1435  72102.2
 18.1835  80026.6
 18.2235  91436.9
 18.2636  108000
 18.3036  132616
 18.3436  169647
 18.3836  223568
 18.4236  293798
 18.4636  366707
 18.5036  417308
 18.5436  425788
 18.5836  395771
 18.6236  351998
 18.6636  320219
 18.7036  309560
 18.7436  310085
 18.7837  302604
 18.8237  274909
 18.8637  230352
 18.9037  182089
 18.9437  140910
 18.9837  110522
 19.0237  89638.9
 19.0637  75692.7
 19.1037  66436.9
 19.1437  60225.2
 19.1837  56014.2
 19.2237  53168.2
 19.2637  51332.1
 19.3038  50310.6
 19.3438  50029
 19.3838  50469.1
 19.4238  51707.8
 19.4638  53929.6
 19.5038  57387.8
 19.5438  62591.9
 19.5838  70373.5
 19.6238  81748.8
 19.6638  97620.4
 19.7038  117656
 19.7438  138336
 19.7839  152865
 19.8239  155102
 19.8639  143929
 19.9039  124504
 19.9439  103755
 19.9839  86229
 20.0239  73445.2
 20.0639  64891.2
 20.1039  59646.9
 20.1439  56993.2
 20.1839  56329
 20.2239  57438.2
 20.2639  60418.7
 20.304  65724.5
 20.344  74288.6
 20.384  87392.4
 20.424  106242
 20.464  129734
 20.504  152876
 20.544  168426
 20.584  172252
 20.624  167537
 20.664  161782
 20.704  159906
 20.744  160134
 20.784  156572
 20.8241  144828
 20.8641  125986
 20.9041  104878
 20.9441  85888.1
 20.9841  71087
 21.0241  60401.4
 21.0641  52893.2
 21.1041  47692.1
 21.1441  44122.1
 21.1841  41657.6
 21.2241  39967.2
 21.2641  38858.8
 21.3041  38217.2
 21.3442  37984.2
 21.3842  38156.1
 21.4242  38700.1
 21.4642  39742.6
 21.5042  41489.4
 21.5442  44309.9
 21.5842  48478.2
 21.6242  53972.3
 21.6642  59898.3
 21.7042  64323.3
 21.7442  65453.1
 21.7842  63153.6
 21.8242  58968.3
 21.8643  54835.9
 21.9043  51951
 21.9443  50765.1
 21.9843  51232.1
 22.0243  53211.8
 22.0643  56741.9
 22.1043  62095.9
 22.1443  69845.6
 22.1843  80824.7
 22.2243  96263.5
 22.2643  117160
 22.3043  142644
 22.3443  168295
 22.3844  187073
 22.4244  193478
 22.4644  187963
 22.5044  176422
 22.5444  164934
 22.5844  155067
 22.6244  144395
 22.6644  130595
 22.7044  114012
 22.7444  97216
 22.7844  82655.4
 22.8244  71332.5
 22.8644  63148.5
 22.9045  57572.8
 22.9445  53938.1
 22.9845  51806.2
 23.0245  50849.4
 23.0645  50920.5
 23.1045  51953.2
 23.1445  54030.9
 23.1845  57375.8
 23.2245  62402.9
 23.2645  69828.7
 23.3045  80690.9
 23.3445  95942.7
 23.3846  115314
 23.4246  135763
 23.4646  151160
 23.5046  155551
 23.5446  147545
 23.5846  131200
 23.6246  112760
 23.6646  96928.2
 23.7046  85520.8
 23.7446  78597.9
 23.7846  75663.9
 23.8246  76385.4
 23.8646  80710.5
 23.9047  89157.3
 23.9447  102609
 23.9847  121603
 24.0247  144763
 24.0647  167238
 24.1047  181283
 24.1447  180879
 24.1847  165990
 24.2247  142404
 24.2647  117420
 24.3047  95783
 24.3447  78908.4
 24.3847  66419.7
 24.4248  57390.9
 24.4648  50913.7
 24.5048  46204.8
 24.5448  42765
 24.5848  40215.8
 24.6248  38318.9
 24.6648  36906
 24.7048  35894.7
 24.7448  35199.5
 24.7848  34766.7
 24.8248  34570
 24.8648  34653.1
 24.9048  35012.5
 24.9449  35714.2
 24.9849  36722.3
 25.0249  37957.5
 25.0649  39284.5
 25.1049  40361.2
 25.1449  40883.9
 25.1849  40796.9
 25.2249  40305.6
 25.2649  39784.6
 25.3049  39541.4
 25.3449  39762.3
 25.3849  40608.6
 25.4249  42160.7
 25.465  44573.4
 25.505  48073.1
 25.545  52967
 25.585  59538.7
 25.625  67756.4
 25.665  77040.3
 25.705  86234.9
 25.745  94270
 25.785  101001
 25.825  106920
 25.865  111726
 25.905  113622
 25.945  110543
 25.9851  102209
 26.0251  90613.9
 26.0651  78450.6
 26.1051  67829.8
 26.1451  59517.5
 26.1851  53466.3
 26.2251  49277
 26.2651  46562.9
 26.3051  45046.4
 26.3451  44555
 26.3851  44975.3
 26.4251  46338.8
 26.4651  48805
 26.5052  52558.5
 26.5452  57714.8
 26.5852  63993.9
 26.6252  70405.9
 26.6652  75259.1
 26.7052  76946.2
 26.7452  75086.9
 26.7852  70691.1
 26.8252  65418.8
 26.8652  60801.3
 26.9052  57666.4
 26.9452  56272.1
 26.9853  56729.3
 27.0253  59213.4
 27.0653  63979.4
 27.1053  71291.3
 27.1453  80903.5
 27.1853  91547.5
 27.2253  100712
 27.2653  105891
 27.3053  106150
 27.3453  102565
 27.3853  96902.4
 27.4253  90227.3
 27.4653  82774.6
 27.5054  74700.5
 27.5454  66604.7
 27.5854  59280.9
 27.6254  53264.8
 27.6654  48672.6
 27.7054  45331.2
 27.7454  43027.1
 27.7854  41589.7
 27.8254  40847.8
 27.8654  40746.6
 27.9054  41295.9
 27.9454  42522.3
 27.9854  44469.2
 28.0255  47158.7
 28.0655  50425.7
 28.1055  53742.7
 28.1455  56292.7
 28.1855  57405.1
 28.2255  56991.1
 28.2655  55611.3
 28.3055  54160.3
 28.3455  53346.7
 28.3855  53675.4
 28.4255  55375.8
 28.4655  58730.2
 28.5055  64031.1
 28.5456  71515.1
 28.5856  81118.8
 28.6256  91854.6
 28.6656  101731
 28.7056  108635
 28.7456  111450
 28.7856  110524
 28.8256  106915
 28.8656  101284
 28.9056  93776.5
 28.9456  84796.1
 28.9856  75222.5
 29.0256  66218.2
 29.0657  58554.8
 29.1057  52466.6
 29.1457  47832.8
 29.1857  44451.7
 29.2257  42079.9
 29.2657  40534
 29.3057  39729.4
 29.3457  39667.6
 29.3857  40343.1
 29.4257  41798.1
 29.4657  43984.9
 29.5057  46460.4
 29.5458  48511.9
 29.5858  49416.7
 29.6258  48856.8
 29.6658  47179.6
 29.7058  45096.9
 29.7458  43325.6
 29.7858  42277.2
 29.8258  42118.9
 29.8658  42940.1
 29.9058  44747
 29.9458  47426.8
 29.9858  50638.6
 30.0258  53658.5
 30.0659  55546.7
 30.1059  55599.7
 30.1459  53703.8
 30.1859  50367.3
 30.2259  46455.4
 30.2659  42703.5
 30.3059  39493.9
 30.3459  36946.9
 30.3859  35015.9
 30.4259  33606.4
 30.4659  32632.2
 30.5059  32052.4
 30.5459  31789.7
 30.586  31824.5
 30.626  32124.8
 30.666  32773.9
 30.706  33775.8
 30.746  35231.1
 30.786  37137.9
 30.826  39393.2
 30.866  41682.5
 30.906  43519.8
 30.946  44512.3
 30.986  44610.4
 31.026  44156.7
 31.066  43705.8
 31.1061  43728.9
 31.1461  44516.8
 31.1861  46354.9
 31.2261  49440.2
 31.2661  53833.1
 31.3061  59410.7
 31.3461  65479.3
 31.3861  70847
 31.4261  74237.7
 31.4661  75005.3
 31.5061  73364.7
 31.5461  70052.8
 31.5861  65827.4
 31.6262  61184.2
 31.6662  56488.2
 31.7062  52172.2
 31.7462  48550.4
 31.7862  45736.5
 31.8262  43788.5
 31.8662  42706.1
 31.9062  42435.5
 31.9462  42926
 31.9862  44242.3
 32.0262  46473.2
 32.0662  49639.9
 32.1062  53574
 32.1463  57763
 32.1863  61311.2
 32.2263  63293.4
 32.2663  63174.9
 32.3063  61219.3
 32.3463  58324.4
 32.3863  55507.1
 32.4263  53480.2
 32.4663  52605.5
 32.5063  53098.8
 32.5463  54913.5
 32.5863  57917.6
 32.6264  61519.5
 32.6664  64828.1
 32.7064  66826.1
 32.7464  66938.3
 32.7864  65267.9
 32.8264  62213.4
 32.8664  58306.3
 32.9064  53965
 32.9464  49542.8
 32.9864  45434
 33.0264  41825.4
 33.0664  38820.8
 33.1064  36408.3
 33.1465  34529.3
 33.1865  33097.7
 33.2265  32020.1
 33.2665  31198.6
 33.3065  30623.3
 33.3465  30259.7
 33.3865  30066.5
 33.4265  30059
 33.4665  30210.1
 33.5065  30531.7
 33.5465  31020.1
 33.5865  31730
 33.6265  32727.8
 33.6666  34057.8
 33.7066  35821.3
 33.7466  38084.9
 33.7866  40959
 33.8266  44406
 33.8666  48296.3
 33.9066  52241.8
 33.9466  55783
 33.9866  58593.1
 34.0266  60307.3
 34.0666  60671.1
 34.1066  59508.1
 34.1466  56839.5
 34.1867  53122.9
 34.2267  49052.8
 34.2667  45292.7
 34.3067  42192.2
 34.3467  39814.8
 34.3867  38177.4
 34.4267  37228.9
 34.4667  36875.2
 34.5067  37113.9
 34.5467  37853.1
 34.5867  38928.1
 34.6267  40088.8
 34.6667  40964.6
 34.7068  41184.4
 34.7468  40686.7
 34.7868  39683
 34.8268  38467.6
 34.8668  37367.9
 34.9068  36660.1
 34.9468  36449.8
 34.9868  36735.4
 35.0268  37421.2
 35.0668  38274
 35.1068  38903.1
 35.1468  38952.1
 35.1868  38262.1
 35.2269  36925.6
 35.2669  35233.8
 35.3069  33507.9
 35.3469  31980.3
 35.3869  30716.2
 35.4269  29754.4
 35.4669  29055.1
 35.5069  28600
 35.5469  28315
 35.5869  28247.9
 35.6269  28353
 35.6669  28641.6
 35.7069  29106.9
 35.747  29789.5
 35.787  30616.6
 35.827  31522.1
 35.867  32477.5
 35.907  33448.8
 35.947  34410.8
 35.987  35505.1
 36.027  36957.1
 36.067  38907.6
 36.107  41438.4
 36.147  44641.5
 36.187  48397.7
 36.2271  52432
 36.2671  56103.3
 36.3071  58739.9
 36.3471  59861.5
 36.3871  59380.4
 36.4271  57567.6
 36.4671  54831.8
 36.5071  51539.4
 36.5471  48087.7
 36.5871  44853.9
 36.6271  42029.3
 36.6671  39779.2
 36.7071  38080.8
 36.7471  36958.6
 36.7872  36371.6
 36.8272  36282.9
 36.8672  36692.4
 36.9072  37492.3
 36.9472  38426.7
 36.9872  39312
 37.0272  39857.5
 37.0672  39909.4
 37.1072  39597.9
 37.1472  39135.8
 37.1872  38816.6
 37.2272  38916.7
 37.2672  39536.6
 37.3073  40738.8
 37.3473  42358.4
 37.3873  44102.1
 37.4273  45624.4
 37.4673  46591
 37.5073  46763.9
 37.5473  46092.3
 37.5873  44759.1
 37.6273  42898.6
 37.6673  40726.6
 37.7073  38554.4
 37.7473  36509.1
 37.7874  34770.1
 37.8274  33396.1
 37.8674  32398.9
 37.9074  31747.5
 37.9474  31395.6
 37.9874  31367.8
 38.0274  31617.3
 38.0674  31974.3
 38.1074  32303.8
 38.1474  32521.7
 38.1874  32558.8
 38.2274  32437.7
 38.2674  32270.7
 38.3075  32276.8
 38.3475  32496.1
 38.3875  33029
 38.4275  33807.9
 38.4675  34694.5
 38.5075  35540.9
 38.5475  36145
 38.5875  36305.2
 38.6275  35996.1
 38.6675  35301.9
 38.7075  34388
 38.7475  33501.9
 38.7875  32448.1
 38.8276  31645.6
 38.8676  31085.1
 38.9076  30763.6
 38.9476  30684.1
 38.9876  30928.7
 39.0276  31482.6
 39.0676  32332.9
 39.1076  33413.5
 39.1476  34585.8
 39.1876  35641.3
 39.2276  36346.4
 39.2676  36579.9
 39.3076  36411.8
 39.3477  36060.2
 39.3877  35747.8
 39.4277  35684.4
 39.4677  36010.5
 39.5077  36695.7
 39.5477  37554.8
 39.5877  38295.6
 39.6277  38604.5
 39.6677  38207.9
 39.7077  37147.4
 39.7477  35596.8
 39.7877  33864.5
 39.8278  32233.7
 39.8678  30814.7
 39.9078  29634.2
 39.9478  28730.5
 39.9878  28058.1
 40.0278  27547
 40.0678  27303.4
 40.1078  27154.9
 40.1478  27267.5
 40.1878  27404
 40.2278  27625.2
 40.2678  27862.7
 40.3078  28049.2
 40.3479  28181
 40.3879  28359.4
 40.4279  28576.6
 40.4679  28894.4
 40.5079  29423.8
 40.5479  30171.4
 40.5879  31138.5
 40.6279  32345.1
 40.6679  33705.2
 40.7079  35022.6
 40.7479  36171.6
 40.7879  36973.3
 40.8279  37170.5
 40.868  36786.2
 40.908  35898.7
 40.948  34778.7
 40.988  33587.4
 41.028  32531.9
 41.068  31744.6
 41.108  31246.4
 41.148  31025.1
 41.188  31127
 41.228  31455.5
 41.268  31944.7
 41.308  32447.8
 41.348  32866.6
 41.3881  33178.2
 41.4281  33401.5
 41.4681  33607.8
 41.5081  33964
 41.5481  34569.8
 41.5881  35451.3
 41.6281  36491.6
 41.6681  37519.1
 41.7081  38288.9
 41.7481  38582.1
 41.7881  38311.7
 41.8281  37499
 41.8681  36324.7
 41.9082  34916.2
 41.9482  33516.7
 41.9882  32218.1
 42.0282  31137.1
 42.0682  30255
 42.1082  29591.4
 42.1482  29163.6
 42.1882  28915.9
 42.2282  28862
 42.2682  29028.6
 42.3082  29234.4
 42.3482  29479.2
 42.3882  29816.5
 42.4283  30235.1
 42.4683  30735.6
 42.5083  31421.1
 42.5483  32314.7
 42.5883  33449.2
 42.6283  34794.9
 42.6683  36222.2
 42.7083  37535.7
 42.7483  38508.7
 42.7883  38957.5
 42.8283  38823.1
 42.8683  38101.8
 42.9083  36993.5
 42.9484  35608.3
 42.9884  34093.5
 43.0284  32615.4
 43.0684  31347.3
 43.1084  30311.3
 43.1484  29561
 43.1884  29039.6
 43.2284  28693.3
 43.2684  28514.2
 43.3084  28429.8
 43.3484  28309.6
 43.3884  28127.6
 43.4285  27860.9
 43.4685  27525.9
 43.5085  27190.1
 43.5485  26903.6
 43.5885  26768.5
 43.6285  26706
 43.6685  26670.6
 43.7085  26612.7
 43.7485  26460.7
 43.7885  26156.5
 43.8285  25773.4
 43.8685  25320.8
 43.9085  24822.9
 43.9486  24400.8
 43.9886  24047.2
 44.0286  23746.9
 44.0686  23554.6
 44.1086  23439.3
 44.1486  23422.4
 44.1886  23502.3
 44.2286  23592.7
 44.2686  23816.8
 44.3086  24117.4
 44.3486  24440.1
 44.3886  24798.7
 44.4286  25271.4
 44.4687  25809.1
 44.5087  26494
 44.5487  27249
 44.5887  28162.5
 44.6287  29172.9
 44.6687  30140.7
 44.7087  30939.9
 44.7487  31444.2
 44.7887  31608.5
 44.8287  31435.6
 44.8687  31038.5
 44.9087  30468.3
 44.9487  29847.6
 44.9888  29268.4
 45.0288  28785.3
 45.0688  28512.9
 45.1088  28417.6
 45.1488  28518.6
 45.1888  28830.1
 45.2288  29211.5
 45.2688  29645.8
 45.3088  30035.2
 45.3488  30250.2
 45.3888  30297.6
 45.4288  30251.2
 45.4688  30253
 45.5089  30254.2
 45.5489  30407.5
 45.5889  30702.6
 45.6289  31046.1
 45.6689  31258.4
 45.7089  31333.4
 45.7489  31161.9
 45.7889  30699.7
 45.8289  30096.2
 45.8689  29364.8
 45.9089  28561.2
 45.9489  27822.5
 45.9889  27183.8
 46.029  26641.1
 46.069  26242.3
 46.109  25944.2
 46.149  25808
 46.189  25738
 46.229  25764.8
 46.269  25819.4
 46.309  25882.2
 46.349  26053.4
 46.389  26329.4
 46.429  26614.3
 46.469  27061.7
 46.509  27606
 46.5491  28240.2
 46.5891  28855.5
 46.6291  29386.4
 46.6691  29755.5
 46.7091  29897
 46.7491  29789.2
 46.7891  29467.3
 46.8291  29016.3
 46.8691  28552.4
 46.9091  28089.5
 46.9491  27758.3
 46.9891  27544.7
 47.0292  27492.1
 47.0692  27557.6
 47.1092  27725.4
 47.1492  27955.6
 47.1892  28150.4
 47.2292  28258.1
 47.2692  28238.1
 47.3092  28092.3
 47.3492  27907.5
 47.3892  27749.4
 47.4292  27692.7
 47.4692  27688.1
 47.5092  27662.2
 47.5493  27573.2
 47.5893  27382.9
 47.6293  27021.7
 47.6693  26551.6
 47.7093  26035.6
 47.7493  25504.4
 47.7893  24997.3
 47.8293  24617.1
 47.8693  24317.3
 47.9093  24103.9
 47.9493  24057.3
 47.9893  24099.8
 48.0293  24176.4
 48.0694  24348
 48.1094  24438.5
 48.1494  24608.2
 48.1894  24965.3
 48.2294  25237.3
 48.2694  25504.7
 48.3094  25838.4
 48.3494  26257.1
 48.3894  26696
 48.4294  27062.8
 48.4694  27363.3
 48.5094  27494.4
 48.5494  27197.2
 48.5895  26874.6
 48.6295  26383.4
 48.6695  25751.4
 48.7095  25105
 48.7495  24471.6
 48.7895  23751.8
 48.8295  23329.2
 48.8695  23023.7
 48.9095  22800.6
 48.9495  22606
 48.9895  22478.8
 49.0295  22370.9
 49.0695  22274.2
 49.1096  22334.2
 49.1496  22295.7
 49.1896  22336
 49.2296  22435.1
 49.2696  22602.6
 49.3096  22773.6
 49.3496  22921.2
 49.3896  23040.1
 49.4296  23090.7
 49.4696  23043.5
 49.5096  22868.2
 49.5496  22663.7
 49.5896  22434.2
 49.6297  22341.3
 49.6697  22164.2
 49.7097  21848.6
 49.7497  21652.5
 49.7897  21532.3
 49.8297  21388.6
 49.8697  21339
 49.9097  21405.1
 49.9497  21475.2
 49.9897  21713.5
 50.0297  21992.1
 50.0697  22330.7
 50.1097  22746.5
 50.1498  23246.5
 50.1898  23808.7
 50.2298  24363.3
 50.2698  24866.7
 50.3098  25293.3
 50.3498  25496.6
 50.3898  25547.6
 50.4298  25468.5
 50.4698  25291.3
 50.5098  25015.6
 50.5498  24787.1
 50.5898  24548.7
 50.6299  24462.1
 50.6699  24441.8
 50.7099  24509.2
 50.7499  24662.1
 50.7899  24833.2
 50.8299  25010.9
 50.8699  25140.4
 50.9099  25216.9
 50.9499  25317.8
 50.9899  25393.2
 51.0299  25554.4
 51.0699  25683.6
 51.1099  25758
 51.15  25820.8
 51.19  25726.5
 51.23  25448.6
 51.27  25044.3
 51.31  24514.9
 51.35  23928.7
 51.39  23407.9
 51.43  22907.6
 51.47  22521.5
 51.51  22219.7
 51.55  21980
 51.59  21825.4
 51.63  21662.9
 51.6701  21663.8
 51.7101  21729.7
 51.7501  21745.2
 51.7901  21878.2
 51.8301  22085.3
 51.8701  22411.9
 51.9101  22715.3
 51.9501  23009.7
 51.9901  23424.1
 52.0301  23705.9
 52.0701  23991.7
 52.1101  24140.4
 52.1501  24177.9
 52.1902  23970.3
 52.2302  23783.4
 52.2702  23509.7
 52.3102  23241.8
 52.3502  22973.7
 52.3902  22847.5
 52.4302  22708.7
 52.4702  22673.3
 52.5102  22663.5
 52.5502  22652.4
 52.5902  22439.7
 52.6302  22531.5
 52.6703  22372.2
 52.7103  22174.6
 52.7503  22004.2
 52.7903  21872
 52.8303  21768.9
 52.8703  21656.7
 52.9103  21566.1
 52.9503  21491.5
 52.9903  21358
 53.0303  21239.5
 53.0703  21087
 53.1103  20867.3
 53.1503  20776.6
 53.1904  20659.1
 53.2304  20585.9
 53.2704  20574.9
 53.3104  20680.6
 53.3504  20762.2
 53.3904  20863.6
 53.4304  21003.7
 53.4704  21163.7
 53.5104  21327.2
 53.5504  21506.9
 53.5904  21734.9
 53.6304  21898.4
 53.6704  22158.3
 53.7105  22479.2
 53.7505  22617.2
 53.7905  22644.5
 53.8305  22621.7
 53.8705  22554.6
 53.9105  22291.5
 53.9505  21955.1
 53.9905  21621.9
 54.0305  21386.2
 54.0705  21106.5
 54.1105  20828.7
 54.1505  20630.5
 54.1905  20471
 54.2306  20434.9
 54.2706  20326.1
 54.3106  20233.3
 54.3506  20178.4
 54.3906  20065.7
 54.4306  19950.3
 54.4706  19886.5
 54.5106  19786.4
 54.5506  19769.7
 54.5906  19740.3
 54.6306  19634.7
 54.6706  19515.4
 54.7106  19440.4
 54.7507  19354.7
 54.7907  19175.6
 54.8307  19073.8
 54.8707  18983.1
 54.9107  18854.8
 54.9507  18980.1
 54.9907  18948.1
 55.0307  19021.3
 55.0707  19097.2
 55.1107  19112.4
 55.1507  19231.7
 55.1907  19440.3
 55.2307  19583.2
 55.2708  19600.7
 55.3108  19805.7
 55.3508  19982.5
 55.3908  20181.5
 55.4308  20283.9
 55.4708  20456.2
 55.5108  20442.6
 55.5508  20484.8
 55.5908  20434.2
 55.6308  20431.9
 55.6708  20358.2
 55.7108  20367
 55.7508  20412.5
 55.7909  20415.7
 55.8309  20519.1
 55.8709  20696.2
 55.9109  20861.8
 55.9509  20881.5
 55.9909  20997.8
 56.0309  21194.3
 56.0709  21212.7
 56.1109  21297.4
 56.1509  21513
 56.1909  21459.3
 56.2309  21596
 56.2709  21495.1
 56.311  21437.3
 56.351  21221.8
 56.391  20899.5
 56.431  20531.5
 56.471  20249
 56.511  20262.4
 56.551  19808.2
 56.591  19298.5
 56.631  18994.2
 56.671  18822.9
 56.711  18709.8
 56.751  18578.6
 56.791  18523.5
 56.8311  18446.3
 56.8711  18102.2
 56.9111  18167.2
 56.9511  18217.4
 56.9911  18254.9
 57.0311  18232.5
 57.0711  18182.5
 57.1111  18019.4
 57.1511  18087.4
 57.1911  17894
 57.2311  17771.7
 57.2711  17548.5
 57.3112  17322.5
 57.3512  17035.6
 57.3912  16759.8
 57.4312  16524.3
 57.4712  16308.1
 57.5112  16028.2
 57.5512  15939.3
 57.5912  15445.8
 57.6312  14892.2
 57.6712  14320.7
 57.7112  14784.6
 57.7512  14794
 57.7912  14628.1
 57.8313  14437.4
 57.8713  14413.8
 57.9113  14817.5
 57.9513  14995.7
 57.9913  15013.2
 58.0313  15042
 58.0713  14718.9
 58.1113  14137.6
 58.1513  13951.8
 58.1913  13165.3
 58.2313  12943.8
 58.2713  11618.5
 58.3113  10198.8
 58.3514  8157.47
 58.3914  7017.97
 58.4314  6712.34
 58.4714  6339.36
 58.5114  4875.65
 58.5514  3031.93
 58.5914  1394.81