File: pdfgetxn3-examples/Pt/series/Pt_bulk_ramp03-00906.chi
Pt_bulk_ramp03-00906.tif: 2-theta Scan
2-Theta Angle (Degrees)

       1465
 0.0200039  0.0000000E+00
 0.0600117  0.0000000E+00
 0.100019  0.0000000E+00
 0.140027  0.0000000E+00
 0.180035  0.0000000E+00
 0.220043  0.0000000E+00
 0.260051  0.0000000E+00
 0.300058  0.0000000E+00
 0.340066  0.0000000E+00
 0.380074  0.0000000E+00
 0.420082  0.0000000E+00
 0.46009  0.0000000E+00
 0.500097  0.0000000E+00
 0.540105  0.0000000E+00
 0.580113  0.0000000E+00
 0.620121  0.0000000E+00
 0.660128  0.0000000E+00
 0.700136  0.0000000E+00
 0.740144  16882.8
 0.780152  19182.9
 0.82016  29976.9
 0.860167  49253.2
 0.900175  75407.7
 0.940183  89655
 0.980191  89948.3
 1.0202  84702.2
 1.06021  78464.6
 1.10021  74078.1
 1.14022  69631.1
 1.18023  65930.5
 1.22024  63078.8
 1.26025  60625.1
 1.30025  58578.7
 1.34026  56888.6
 1.38027  55408.4
 1.42028  54187.6
 1.46028  53154.4
 1.50029  52254.7
 1.5403  51521.3
 1.58031  50744.9
 1.62032  50155.3
 1.66032  49778
 1.70033  49589.4
 1.74034  49865.1
 1.78035  50177.4
 1.82035  49865.3
 1.86036  48944.7
 1.90037  47928.8
 1.94038  47461
 1.98039  47481.7
 2.02039  47779.3
 2.0604  48032.2
 2.10041  48036.7
 2.14042  47787.9
 2.18042  47521.1
 2.22043  47471.3
 2.26044  47638
 2.30045  47756.1
 2.34046  47901.9
 2.38046  48076.3
 2.42047  48306.6
 2.46048  48656.1
 2.50049  49075.3
 2.54049  49602.9
 2.5805  50006.2
 2.62051  50104.9
 2.66052  49861.3
 2.70053  49141.3
 2.74053  48268.7
 2.78054  47384.7
 2.82055  46628.6
 2.86056  46076.1
 2.90056  45601
 2.94057  45007.6
 2.98058  44085.1
 3.02059  42970.6
 3.0606  41999.3
 3.1006  41287
 3.14061  40798.1
 3.18062  40408.4
 3.22063  40112.4
 3.26063  39927.8
 3.30064  39830.1
 3.34065  39925
 3.38066  40236.7
 3.42067  40612
 3.46067  40756.6
 3.50068  40663.2
 3.54069  40533.6
 3.5807  40506.2
 3.6207  40562.7
 3.66071  40551
 3.70072  40430.4
 3.74073  40314.3
 3.78074  40133.2
 3.82074  39873.2
 3.86075  39662.9
 3.90076  39515.6
 3.94077  39447.8
 3.98077  39436.1
 4.02078  39534
 4.06079  39747.5
 4.1008  40039
 4.14081  40357.1
 4.18081  40702
 4.22082  41100.9
 4.26083  41531.3
 4.30084  42083.7
 4.34084  42798.5
 4.38085  43686.8
 4.42086  44789.5
 4.46087  46113.7
 4.50088  47660.5
 4.54088  49376.4
 4.58089  51329.4
 4.6209  53624.2
 4.66091  56238.8
 4.70091  59321.5
 4.74092  63071.6
 4.78093  67661.8
 4.82094  73363.8
 4.86095  80410.9
 4.90095  89317.1
 4.94096  100843
 4.98097  115736
 5.02098  136123
 5.06098  164557
 5.10099  205101
 5.141  269934
 5.18101  383437
 5.22102  607122
 5.26102  1.09826e+06
 5.30103  2.02283e+06
 5.34104  3.15595e+06
 5.38105  3.67725e+06
 5.42105  3.6783e+06
 5.46106  3.13527e+06
 5.50107  2.00386e+06
 5.54108  1.05058e+06
 5.58109  564353
 5.62109  349001
 5.6611  246929
 5.70111  196740
 5.74112  170463
 5.78113  157319
 5.82113  153422
 5.86114  156795
 5.90115  168624
 5.94116  191472
 5.98116  232224
 6.02117  307592
 6.06118  449044
 6.10119  720458
 6.14119  1.17392e+06
 6.1812  1.7134e+06
 6.22121  2.07103e+06
 6.26122  1.9728e+06
 6.30123  1.49101e+06
 6.34123  925710
 6.38124  528807
 6.42125  305684
 6.46126  194395
 6.50127  136657
 6.54127  104346
 6.58128  85256.6
 6.62129  72831.5
 6.6613  64269.1
 6.7013  58240.8
 6.74131  53692.7
 6.78132  50230.6
 6.82133  47526.1
 6.86134  45266.1
 6.90134  43352.2
 6.94135  41682.5
 6.98136  40182.6
 7.02137  38980.9
 7.06137  38004.9
 7.10138  37143.8
 7.14139  36428.9
 7.1814  35794.3
 7.2214  35277.3
 7.26141  34844.4
 7.30142  34496.7
 7.34143  34240.6
 7.38144  34066.6
 7.42144  33924.2
 7.46145  33816.4
 7.50146  33721.9
 7.54147  33658.4
 7.58148  33667.5
 7.62148  33747.3
 7.66149  33898.2
 7.7015  34142.7
 7.74151  34457.5
 7.78151  34831.8
 7.82152  35286.5
 7.86153  35808.3
 7.90154  36440.8
 7.94155  37220.1
 7.98155  38100.8
 8.02156  39091.5
 8.06157  40246.8
 8.10158  41628.5
 8.14158  43299.4
 8.18159  45328.5
 8.2216  47760.8
 8.26161  50753.4
 8.30162  54533.2
 8.34162  59311.9
 8.38163  65526
 8.42164  73805.8
 8.46165  84996.2
 8.50165  100828
 8.54166  124685
 8.58167  162808
 8.62168  229692
 8.66169  355179
 8.70169  581466
 8.7417  936718
 8.78171  1.31821e+06
 8.82172  1.52229e+06
 8.86172  1.39817e+06
 8.90173  1.04196e+06
 8.94174  660439
 8.98175  392471
 9.02176  241124
 9.06176  160958
 9.10177  118770
 9.14178  95167.5
 9.18179  80907.2
 9.22179  72028.1
 9.2618  66184.5
 9.30181  62231.5
 9.34182  59632.7
 9.38183  57878.8
 9.42183  56809.6
 9.46184  56348.6
 9.50185  56326.6
 9.54186  56710.5
 9.58186  57516.6
 9.62187  58790.4
 9.66188  60628.8
 9.70189  63054.6
 9.7419  66239.1
 9.7819  70317
 9.82191  75521.4
 9.86192  82279.3
 9.90193  90962.3
 9.94193  102699
 9.98194  118883
 10.022  141481
 10.062  174928
 10.102  227621
 10.142  315261
 10.182  469522
 10.222  735379
 10.262  1.1239e+06
 10.302  1.54467e+06
 10.342  1.77487e+06
 10.382  1.67253e+06
 10.422  1.29779e+06
 10.462  875892
 10.502  556650
 10.5421  368092
 10.5821  274407
 10.6221  242348
 10.6621  261861
 10.7021  334098
 10.7421  449930
 10.7821  555695
 10.8221  579030
 10.8621  495219
 10.9021  357008
 10.9421  233130
 10.9821  151604
 11.0221  106232
 11.0622  81394.7
 11.1022  67245.6
 11.1422  58651.2
 11.1822  52930.2
 11.2222  48895.2
 11.2622  45970
 11.3022  43697.4
 11.3422  41917.4
 11.3822  40526.4
 11.4222  39393.7
 11.4622  38465.9
 11.5022  37679.1
 11.5422  36962.8
 11.5823  36361.1
 11.6223  35916.1
 11.6623  35554
 11.7023  35293.7
 11.7423  35155.5
 11.7823  35141.7
 11.8223  35267.6
 11.8623  35544.5
 11.9023  36014.1
 11.9423  36804.4
 11.9823  38066.8
 12.0223  40113.4
 12.0623  41524.7
 12.1024  43319.4
 12.1424  46073.9
 12.1824  50632.8
 12.2224  57363
 12.2624  67776.2
 12.3024  84137.9
 12.3424  109982
 12.3824  147139
 12.4224  189959
 12.4624  222628
 12.5024  227024
 12.5424  200857
 12.5824  158439
 12.6225  118356
 12.6625  89333.2
 12.7025  70909
 12.7425  60013
 12.7825  53736.3
 12.8225  50231.3
 12.8625  48460.2
 12.9025  47815.3
 12.9425  47999.2
 12.9825  48855.8
 13.0225  50378
 13.0625  52543.7
 13.1026  55435.2
 13.1426  59243.6
 13.1826  64273.2
 13.2226  70925.1
 13.2626  79891
 13.3026  92333.5
 13.3426  110208
 13.3826  137521
 13.4226  181595
 13.4626  254428
 13.5026  368585
 13.5426  518725
 13.5826  657975
 13.6227  718704
 13.6627  669468
 13.7027  551686
 13.7427  435419
 13.7827  369541
 13.8227  369246
 13.8627  430800
 13.9027  530303
 13.9427  614715
 13.9827  626872
 14.0227  550646
 14.0627  425453
 14.1027  302523
 14.1428  210764
 14.1828  150884
 14.2228  113846
 14.2628  91141.4
 14.3028  76838.7
 14.3428  67488.5
 14.3828  61180
 14.4228  56799.7
 14.4628  53679.4
 14.5028  51451.6
 14.5428  49914.8
 14.5828  48904.4
 14.6228  48354
 14.6629  48207.2
 14.7029  48469.1
 14.7429  49169.6
 14.7829  50381.3
 14.8229  52168
 14.8629  54727.6
 14.9029  58312.9
 14.9429  63291.4
 14.9829  70266.1
 15.0229  80336
 15.0629  95346.6
 15.1029  118919
 15.1429  156681
 15.183  215703
 15.223  295959
 15.263  378988
 15.303  428429
 15.343  416403
 15.383  350720
 15.423  265428
 15.463  191171
 15.503  138885
 15.543  105736
 15.583  85728
 15.623  73914
 15.663  67105.8
 15.7031  63480
 15.7431  62101
 15.7831  62546.9
 15.8231  64723.9
 15.8631  68816.8
 15.9031  75291.9
 15.9431  85013
 15.9831  99606.9
 16.0231  121952
 16.0631  156662
 16.1031  209260
 16.1431  281765
 16.1831  362146
 16.2232  420755
 16.2632  427600
 16.3032  378251
 16.3432  298220
 16.3832  219236
 16.4232  158058
 16.4632  116432
 16.5032  89581.2
 16.5432  72361.7
 16.5832  61184.4
 16.6232  53699.4
 16.6632  48532.9
 16.7033  44847.8
 16.7433  42196.4
 16.7833  40224.5
 16.8233  38758.4
 16.8633  37677
 16.9033  36878.8
 16.9433  36312.3
 16.9833  35957
 17.0233  35765
 17.0633  35707.6
 17.1033  35838.4
 17.1433  36143.1
 17.1833  36623.8
 17.2234  37385.9
 17.2634  38439.8
 17.3034  39871.4
 17.3434  41818
 17.3834  44469.8
 17.4234  48170
 17.4634  53575.9
 17.5034  61737.7
 17.5434  74108.8
 17.5834  91879.8
 17.6234  113761
 17.6634  133659
 17.7034  143197
 17.7435  137915
 17.7835  121308
 17.8235  101313
 17.8635  84309.1
 17.9035  72525.8
 17.9435  65498.2
 17.9835  62104.6
 18.0235  61447.8
 18.0635  62979.6
 18.1035  66348.3
 18.1435  71746.4
 18.1835  79640.5
 18.2235  91006.1
 18.2636  107520
 18.3036  132062
 18.3436  168979
 18.3836  222795
 18.4236  292936
 18.4636  365932
 18.5036  416850
 18.5436  425624
 18.5836  395805
 18.6236  352087
 18.6636  320161
 18.7036  309373
 18.7436  309847
 18.7837  302431
 18.8237  274866
 18.8637  230414
 18.9037  182127
 18.9437  140893
 18.9837  110432
 19.0237  89498.8
 19.0637  75496.2
 19.1037  66185.8
 19.1437  59934.6
 19.1837  55704.6
 19.2237  52871.6
 19.2637  51041.6
 19.3038  50019.8
 19.3438  49730.3
 19.3838  50169.8
 19.4238  51406.9
 19.4638  53630.2
 19.5038  57087
 19.5438  62281.7
 19.5838  70063.1
 19.6238  81400.7
 19.6638  97254.4
 19.7038  117271
 19.7438  137963
 19.7839  152553
 19.8239  154906
 19.8639  143838
 19.9039  124450
 19.9439  103668
 19.9839  86113.8
 20.0239  73286
 20.0639  64706.3
 20.1039  59420.2
 20.1439  56726.6
 20.1839  56039.3
 20.2239  57143.5
 20.2639  60133.7
 20.304  65439.6
 20.344  73958.8
 20.384  87012.6
 20.424  105854
 20.464  129350
 20.504  152529
 20.544  168155
 20.584  172062
 20.624  167399
 20.664  161634
 20.704  159732
 20.744  159955
 20.784  156470
 20.8241  144829
 20.8641  126018
 20.9041  104880
 20.9441  85851.1
 20.9841  71022.2
 21.0241  60272.2
 21.0641  52725.7
 21.1041  47533.3
 21.1441  43944.4
 21.1841  41454
 21.2241  39751.9
 21.2641  38644.2
 21.3041  38007.6
 21.3442  37790.3
 21.3842  37944.3
 21.4242  38466.8
 21.4642  39508.3
 21.5042  41261.7
 21.5442  44079.4
 21.5842  48226.9
 21.6242  53714.5
 21.6642  59654.5
 21.7042  64100
 21.7442  65267.7
 21.7842  63010.1
 21.8242  58807.2
 21.8643  54648.1
 21.9043  51771.5
 21.9443  50589.1
 21.9843  51023.1
 22.0243  52953.1
 22.0643  56468.4
 22.1043  61801.7
 22.1443  69518.9
 22.1843  80482
 22.2243  95914
 22.2643  116798
 22.3043  142266
 22.3443  168030
 22.3844  187010
 22.4244  193512
 22.4644  188013
 22.5044  176484
 22.5444  164972
 22.5844  155043
 22.6244  144376
 22.6644  130601
 22.7044  113994
 22.7444  97154.2
 22.7844  82539.2
 22.8244  71175.1
 22.8644  62966.5
 22.9045  57359.1
 22.9445  53716.7
 22.9845  51579.3
 23.0245  50632.7
 23.0645  50668
 23.1045  51659.8
 23.1445  53711.5
 23.1845  57050.8
 23.2245  62080.6
 23.2645  69509.4
 23.3045  80392.5
 23.3445  95631.4
 23.3846  114960
 23.4246  135466
 23.4646  150985
 23.5046  155501
 23.5446  147581
 23.5846  131286
 23.6246  112819
 23.6646  96907.3
 23.7046  85422.9
 23.7446  78426.1
 23.7846  75453.7
 23.8246  76128.6
 23.8646  80393
 23.9047  88821.2
 23.9447  102276
 23.9847  121282
 24.0247  144502
 24.0647  167066
 24.1047  181246
 24.1447  180972
 24.1847  166167
 24.2247  142636
 24.2647  117595
 24.3047  95862.7
 24.3447  78897.4
 24.3847  66310.8
 24.4248  57222.4
 24.4648  50747.2
 24.5048  46025.8
 24.5448  42563
 24.5848  40009.5
 24.6248  38135.2
 24.6648  36747.3
 24.7048  35720.4
 24.7448  34994
 24.7848  34533.9
 24.8248  34351
 24.8648  34452.6
 24.9048  34815.1
 24.9449  35504.1
 24.9849  36488.9
 25.0249  37730.5
 25.0649  39057
 25.1049  40134.8
 25.1449  40670.4
 25.1849  40601.1
 25.2249  40124.3
 25.2649  39596.7
 25.3049  39346.1
 25.3449  39584.8
 25.3849  40428.2
 25.4249  41985.3
 25.465  44392.9
 25.505  47870.1
 25.545  52752.7
 25.585  59308.9
 25.625  67542.9
 25.665  76822.9
 25.705  86041.1
 25.745  94106.1
 25.785  100892
 25.825  106846
 25.865  111644
 25.905  113606
 25.945  110610
 25.9851  102300
 26.0251  90705.7
 26.0651  78518.7
 26.1051  67810
 26.1451  59431.9
 26.1851  53355.5
 26.2251  49137.5
 26.2651  46422.5
 26.3051  44877.9
 26.3451  44364.9
 26.3851  44779.8
 26.4251  46160.6
 26.4651  48614.4
 26.5052  52373
 26.5452  57524.3
 26.5852  63830.9
 26.6252  70285.1
 26.6652  75148.9
 26.7052  76880.4
 26.7452  75049.6
 26.7852  70627.3
 26.8252  65323.4
 26.8652  60700
 26.9052  57532.1
 26.9452  56109
 26.9853  56543.5
 27.0253  59005.4
 27.0653  63765.5
 27.1053  71081.5
 27.1453  80721.3
 27.1853  91358.1
 27.2253  100552
 27.2653  105851
 27.3053  106220
 27.3453  102650
 27.3853  96938.2
 27.4253  90244.7
 27.4653  82763.5
 27.5054  74705.2
 27.5454  66580
 27.5854  59202.6
 27.6254  53161
 27.6654  48537.6
 27.7054  45169.6
 27.7454  42840.2
 27.7854  41387.4
 27.8254  40656.7
 27.8654  40559.5
 27.9054  41109.4
 27.9454  42308
 27.9854  44245.5
 28.0255  46960.2
 28.0655  50255
 28.1055  53593.5
 28.1455  56146.5
 28.1855  57256.2
 28.2255  56857.3
 28.2655  55503.6
 28.3055  54044.8
 28.3455  53202.5
 28.3855  53489.4
 28.4255  55202.4
 28.4655  58557.1
 28.5055  63858.4
 28.5456  71366.8
 28.5856  80960.6
 28.6256  91723.6
 28.6656  101702
 28.7056  108689
 28.7456  111570
 28.7856  110664
 28.8256  107061
 28.8656  101448
 28.9056  93918.4
 28.9456  84880.9
 28.9856  75278
 29.0256  66257.8
 29.0657  58562.3
 29.1057  52467.3
 29.1457  47807.5
 29.1857  44367.2
 29.2257  41936.7
 29.2657  40403.9
 29.3057  39606.1
 29.3457  39531.9
 29.3857  40185.9
 29.4257  41635.2
 29.4657  43808.7
 29.5057  46295.1
 29.5458  48361.5
 29.5858  49306.9
 29.6258  48777.4
 29.6658  47089.8
 29.7058  44994.8
 29.7458  43201.7
 29.7858  42147.1
 29.8258  41984.4
 29.8658  42806.2
 29.9058  44609.4
 29.9458  47303
 29.9858  50549.1
 30.0258  53606.5
 30.0659  55534.1
 30.1059  55626.9
 30.1459  53714.1
 30.1859  50356.3
 30.2259  46428.6
 30.2659  42651.1
 30.3059  39416
 30.3459  36858.2
 30.3859  34905.8
 30.4259  33494.9
 30.4659  32521.7
 30.5059  31914.5
 30.5459  31649.3
 30.586  31673.5
 30.626  31981.3
 30.666  32625.3
 30.706  33646.8
 30.746  35071.8
 30.786  36989.5
 30.826  39260.3
 30.866  41562.3
 30.906  43389.8
 30.946  44390.7
 30.986  44506.5
 31.026  44069.9
 31.066  43616.2
 31.1061  43616.3
 31.1461  44401.8
 31.1861  46217.8
 31.2261  49284.1
 31.2661  53683
 31.3061  59271.8
 31.3461  65384.8
 31.3861  70823.4
 31.4261  74250.3
 31.4661  75029.7
 31.5061  73410.2
 31.5461  70108.9
 31.5861  65876.5
 31.6262  61233.7
 31.6662  56532.5
 31.7062  52169.2
 31.7462  48498.4
 31.7862  45676.2
 31.8262  43728.4
 31.8662  42630.7
 31.9062  42313
 31.9462  42780
 31.9862  44094.3
 32.0262  46318.3
 32.0662  49482.9
 32.1062  53439
 32.1463  57663.1
 32.1863  61254.1
 32.2263  63280.4
 32.2663  63171.2
 32.3063  61223.5
 32.3463  58351.4
 32.3863  55511.3
 32.4263  53435
 32.4663  52532.4
 32.5063  53001.7
 32.5463  54818.2
 32.5863  57815.4
 32.6264  61432.2
 32.6664  64758.4
 32.7064  66814.9
 32.7464  66998.2
 32.7864  65355.3
 32.8264  62295.7
 32.8664  58388.4
 32.9064  54022.8
 32.9464  49574.1
 32.9864  45408
 33.0264  41774.4
 33.0664  38747
 33.1064  36343.9
 33.1465  34450.2
 33.1865  32985.2
 33.2265  31884.6
 33.2665  31064.2
 33.3065  30488.1
 33.3465  30126.9
 33.3865  29912.5
 33.4265  29889
 33.4665  30040.5
 33.5065  30351.7
 33.5465  30855.4
 33.5865  31588.1
 33.6265  32590.5
 33.6666  33930.1
 33.7066  35687.8
 33.7466  37975.7
 33.7866  40851
 33.8266  44307.3
 33.8666  48223.3
 33.9066  52190.3
 33.9466  55772.6
 33.9866  58608.4
 34.0266  60368.1
 34.0666  60773
 34.1066  59604.1
 34.1466  56901.3
 34.1867  53168.9
 34.2267  49113.9
 34.2667  45332.9
 34.3067  42200.7
 34.3467  39805.9
 34.3867  38118
 34.4267  37138
 34.4667  36777
 34.5067  37036.8
 34.5467  37764.8
 34.5867  38858.6
 34.6267  40031.6
 34.6667  40903.9
 34.7068  41148.6
 34.7468  40669.3
 34.7868  39669.5
 34.8268  38436.7
 34.8668  37322.7
 34.9068  36617.4
 34.9468  36393.8
 34.9868  36669.5
 35.0268  37378.8
 35.0668  38222.1
 35.1068  38858.8
 35.1468  38920.1
 35.1868  38238.1
 35.2269  36914.4
 35.2669  35221.9
 35.3069  33468.4
 35.3469  31913.2
 35.3869  30655
 35.4269  29675.8
 35.4669  28982.8
 35.5069  28490.8
 35.5469  28202.2
 35.5869  28150.5
 35.6269  28264.2
 35.6669  28562
 35.7069  29027.8
 35.747  29686.6
 35.787  30497.1
 35.827  31410.2
 35.867  32368.8
 35.907  33318.1
 35.947  34294.5
 35.987  35452.4
 36.027  36907.6
 36.067  38846.9
 36.107  41383.6
 36.147  44600.3
 36.187  48367
 36.2271  52430.3
 36.2671  56128.7
 36.3071  58809.1
 36.3471  59961.6
 36.3871  59507.6
 36.4271  57689.7
 36.4671  54938.9
 36.5071  51621.2
 36.5471  48147.2
 36.5871  44866.2
 36.6271  42020.3
 36.6671  39732.2
 36.7071  38057.4
 36.7471  36923.8
 36.7872  36311.8
 36.8272  36232
 36.8672  36620.1
 36.9072  37396.8
 36.9472  38359.1
 36.9872  39270.7
 37.0272  39810
 37.0672  39856.2
 37.1072  39560.6
 37.1472  39086
 37.1872  38782.1
 37.2272  38882.2
 37.2672  39508.8
 37.3073  40706.8
 37.3473  42325.6
 37.3873  44089.3
 37.4273  45628.5
 37.4673  46625.1
 37.5073  46821.7
 37.5473  46148.9
 37.5873  44833
 37.6273  42958.9
 37.6673  40764.7
 37.7073  38554.9
 37.7473  36490.4
 37.7874  34731.6
 37.8274  33340.7
 37.8674  32322.3
 37.9074  31639.7
 37.9474  31317.7
 37.9874  31313.5
 38.0274  31512.6
 38.0674  31861.6
 38.1074  32243.8
 38.1474  32477.8
 38.1874  32490.9
 38.2274  32373.4
 38.2674  32222.5
 38.3075  32191.7
 38.3475  32413.9
 38.3875  32951.2
 38.4275  33756.8
 38.4675  34668.2
 38.5075  35528.8
 38.5475  36126.3
 38.5875  36283.3
 38.6275  35981.5
 38.6675  35305.3
 38.7075  34385.5
 38.7475  33495.4
 38.7875  32441
 38.8276  31633
 38.8676  31042
 38.9076  30713.6
 38.9476  30636.6
 38.9876  30880
 39.0276  31438.5
 39.0676  32289.7
 39.1076  33335.9
 39.1476  34530.6
 39.1876  35604.4
 39.2276  36320.6
 39.2676  36577.4
 39.3076  36425.2
 39.3477  36058.6
 39.3877  35728.6
 39.4277  35655.9
 39.4677  35997.2
 39.5077  36669.4
 39.5477  37557.2
 39.5877  38343.5
 39.6277  38676.3
 39.6677  38269.8
 39.7077  37188.7
 39.7477  35636
 39.7877  33902.7
 39.8278  32231.4
 39.8678  30783.6
 39.9078  29616.7
 39.9478  28682.1
 39.9878  27993.8
 40.0278  27497.9
 40.0678  27247.9
 40.1078  27129.8
 40.1478  27188.7
 40.1878  27328.4
 40.2278  27550.3
 40.2678  27777.1
 40.3078  27992.4
 40.3479  28147.3
 40.3879  28296.3
 40.4279  28500.2
 40.4679  28814.3
 40.5079  29334.7
 40.5479  30110.1
 40.5879  31087
 40.6279  32283.6
 40.6679  33643.1
 40.7079  35025.6
 40.7479  36212.7
 40.7879  37000.8
 40.8279  37218.1
 40.868  36837.1
 40.908  35954.4
 40.948  34782.6
 40.988  33573
 41.028  32524.8
 41.068  31734.3
 41.108  31219.4
 41.148  31007.3
 41.188  31098.3
 41.228  31440.7
 41.268  31933.4
 41.308  32418.4
 41.348  32844.2
 41.3881  33146.8
 41.4281  33366
 41.4681  33578.5
 41.5081  33938.7
 41.5481  34563.4
 41.5881  35458.9
 41.6281  36514.4
 41.6681  37559
 41.7081  38377.1
 41.7481  38688.6
 41.7881  38396.4
 41.8281  37562.1
 41.8681  36375.5
 41.9082  34964
 41.9482  33531.3
 41.9882  32226.6
 42.0282  31118.5
 42.0682  30235.6
 42.1082  29586.7
 42.1482  29140.6
 42.1882  28899
 42.2282  28849.5
 42.2682  28964
 42.3082  29168.4
 42.3482  29436.1
 42.3882  29760.3
 42.4283  30181.2
 42.4683  30695.2
 42.5083  31378.3
 42.5483  32277
 42.5883  33429.6
 42.6283  34797.2
 42.6683  36234.2
 42.7083  37563.7
 42.7483  38558.8
 42.7883  39028.4
 42.8283  38915.7
 42.8683  38218.7
 42.9083  37081.2
 42.9484  35656.2
 42.9884  34133
 43.0284  32649.7
 43.0684  31388.2
 43.1084  30348.4
 43.1484  29570.7
 43.1884  29017.7
 43.2284  28653.6
 43.2684  28475.9
 43.3084  28371.2
 43.3484  28288.9
 43.3884  28083.4
 43.4285  27844.1
 43.4685  27514.9
 43.5085  27184.9
 43.5485  26910.9
 43.5885  26776.8
 43.6285  26690.8
 43.6685  26630.3
 43.7085  26578.9
 43.7485  26455
 43.7885  26169.3
 43.8285  25731.4
 43.8685  25259.2
 43.9085  24766.8
 43.9486  24337.4
 43.9886  23954.3
 44.0286  23689.4
 44.0686  23511.4
 44.1086  23404.2
 44.1486  23392.1
 44.1886  23430.7
 44.2286  23540.6
 44.2686  23788.4
 44.3086  24059.3
 44.3486  24394.7
 44.3886  24775.8
 44.4286  25211.9
 44.4687  25755.1
 44.5087  26427.9
 44.5487  27217.6
 44.5887  28166
 44.6287  29166.5
 44.6687  30140.2
 44.7087  30919.2
 44.7487  31469.8
 44.7887  31632.6
 44.8287  31477.6
 44.8687  31080.3
 44.9087  30501
 44.9487  29890.7
 44.9888  29304.5
 45.0288  28817.3
 45.0688  28535.9
 45.1088  28425.8
 45.1488  28525
 45.1888  28816.3
 45.2288  29192.9
 45.2688  29645.2
 45.3088  30042.9
 45.3488  30261.8
 45.3888  30302.9
 45.4288  30256.2
 45.4688  30237.5
 45.5089  30238.5
 45.5489  30436.9
 45.5889  30724.6
 45.6289  31069.7
 45.6689  31287.8
 45.7089  31369.5
 45.7489  31174.7
 45.7889  30761.9
 45.8289  30119.4
 45.8689  29385.6
 45.9089  28593.7
 45.9489  27818.9
 45.9889  27154.1
 46.029  26627.7
 46.069  26213.7
 46.109  25934.9
 46.149  25772.1
 46.189  25709.2
 46.229  25709.8
 46.269  25773.1
 46.309  25888.9
 46.349  26034.6
 46.389  26282.3
 46.429  26588.3
 46.469  27009.8
 46.509  27583.3
 46.5491  28215
 46.5891  28838
 46.6291  29372
 46.6691  29747.3
 46.7091  29909.2
 46.7491  29813
 46.7891  29499.9
 46.8291  29060.8
 46.8691  28587.7
 46.9091  28131
 46.9491  27775.3
 46.9891  27543.1
 47.0292  27480.3
 47.0692  27579.9
 47.1092  27730.5
 47.1492  27969.3
 47.1892  28162.9
 47.2292  28291.7
 47.2692  28251.8
 47.3092  28126.6
 47.3492  27951.5
 47.3892  27809.6
 47.4292  27721.9
 47.4692  27714.8
 47.5092  27704.8
 47.5493  27572.4
 47.5893  27382.2
 47.6293  27039.6
 47.6693  26568
 47.7093  26018
 47.7493  25509.9
 47.7893  25018.1
 47.8293  24604
 47.8693  24281.4
 47.9093  24078.1
 47.9493  24008.5
 47.9893  24077.3
 48.0293  24142.7
 48.0694  24309.4
 48.1094  24429
 48.1494  24605
 48.1894  24963.8
 48.2294  25238
 48.2694  25530.5
 48.3094  25859.7
 48.3494  26249.8
 48.3894  26676.9
 48.4294  27142.1
 48.4694  27418.1
 48.5094  27563.3
 48.5494  27269.2
 48.5895  26951.7
 48.6295  26408.5
 48.6695  25786
 48.7095  25114.8
 48.7495  24448.7
 48.7895  23729.6
 48.8295  23329.6
 48.8695  23022.4
 48.9095  22794.7
 48.9495  22573.5
 48.9895  22456
 49.0295  22342.8
 49.0695  22271
 49.1096  22270.8
 49.1496  22245.6
 49.1896  22326.3
 49.2296  22432.3
 49.2696  22595.7
 49.3096  22755.3
 49.3496  22912.9
 49.3896  23019.6
 49.4296  23109.2
 49.4696  23070.2
 49.5096  22882.3
 49.5496  22681.6
 49.5896  22452.7
 49.6297  22360
 49.6697  22147.7
 49.7097  21832.6
 49.7497  21601
 49.7897  21487.7
 49.8297  21356
 49.8697  21357.8
 49.9097  21418.3
 49.9497  21511.9
 49.9897  21752
 50.0297  21996.7
 50.0697  22316.1
 50.1097  22772.9
 50.1498  23272.3
 50.1898  23828.2
 50.2298  24384.3
 50.2698  24865.4
 50.3098  25261.5
 50.3498  25543.3
 50.3898  25615.5
 50.4298  25555
 50.4698  25345.9
 50.5098  25054.3
 50.5498  24791.5
 50.5898  24601.1
 50.6299  24499.1
 50.6699  24504.8
 50.7099  24532.9
 50.7499  24678.8
 50.7899  24871.1
 50.8299  25071.6
 50.8699  25162.7
 50.9099  25242.9
 50.9499  25382.4
 50.9899  25468.3
 51.0299  25605.1
 51.0699  25715.6
 51.1099  25768.3
 51.15  25847
 51.19  25756
 51.23  25479.9
 51.27  25053
 51.31  24548
 51.35  23997.3
 51.39  23432.1
 51.43  22949.2
 51.47  22579.1
 51.51  22244.7
 51.55  22004.8
 51.59  21822
 51.63  21667
 51.6701  21703.4
 51.7101  21704.4
 51.7501  21773.9
 51.7901  21894
 51.8301  22090.5
 51.8701  22401.9
 51.9101  22698
 51.9501  23001.2
 51.9901  23443.8
 52.0301  23711.1
 52.0701  24003.8
 52.1101  24169.7
 52.1501  24253
 52.1902  24058.3
 52.2302  23888.8
 52.2702  23577.1
 52.3102  23320.3
 52.3502  23046.3
 52.3902  22872.7
 52.4302  22769.4
 52.4702  22685.9
 52.5102  22660.5
 52.5502  22668.9
 52.5902  22609
 52.6302  22567.6
 52.6703  22369.2
 52.7103  22165.8
 52.7503  21996.5
 52.7903  21863.4
 52.8303  21835.4
 52.8703  21709.2
 52.9103  21606.6
 52.9503  21482.1
 52.9903  21400.1
 53.0303  21223.5
 53.0703  21092.8
 53.1103  20905.7
 53.1503  20769.5
 53.1904  20645
 53.2304  20593.8
 53.2704  20621.9
 53.3104  20695.2
 53.3504  20830
 53.3904  20878.5
 53.4304  20992.4
 53.4704  21153.3
 53.5104  21360.4
 53.5504  21564.6
 53.5904  21726.1
 53.6304  21971.9
 53.6704  22207.9
 53.7105  22434.9
 53.7505  22642.1
 53.7905  22691.8
 53.8305  22706.5
 53.8705  22604.2
 53.9105  22340.4
 53.9505  22039.2
 53.9905  21690.6
 54.0305  21396.9
 54.0705  21032.7
 54.1105  20796.6
 54.1505  20662.4
 54.1905  20537.3
 54.2306  20471.1
 54.2706  20346.1
 54.3106  20291.7
 54.3506  20210.2
 54.3906  20078.4
 54.4306  19931.8
 54.4706  19920.2
 54.5106  19873.9
 54.5506  19757.1
 54.5906  19754.1
 54.6306  19640.4
 54.6706  19563.4
 54.7106  19439.6
 54.7507  19293.5
 54.7907  19151.8
 54.8307  19037.2
 54.8707  18976.9
 54.9107  18883.5
 54.9507  18903.5
 54.9907  18928.1
 55.0307  18966.9
 55.0707  19052.1
 55.1107  19075.6
 55.1507  19251.2
 55.1907  19426.7
 55.2307  19567.7
 55.2708  19627.4
 55.3108  19747.8
 55.3508  20021.3
 55.3908  20189.8
 55.4308  20340.7
 55.4708  20403.9
 55.5108  20445.9
 55.5508  20497.9
 55.5908  20512.5
 55.6308  20497.4
 55.6708  20434.3
 55.7108  20299.7
 55.7508  20389.8
 55.7909  20478.5
 55.8309  20615.1
 55.8709  20776.1
 55.9109  20894.9
 55.9509  20994
 55.9909  21123.4
 56.0309  21316.3
 56.0709  21333.9
 56.1109  21418.5
 56.1509  21502.6
 56.1909  21501.4
 56.2309  21690.2
 56.2709  21589.4
 56.311  21560.7
 56.351  21327.2
 56.391  21072.2
 56.431  20643.5
 56.471  20199.8
 56.511  20025.9
 56.551  19674.4
 56.591  19331.4
 56.631  18972.1
 56.671  18962.6
 56.711  18712
 56.751  18506.1
 56.791  18540.3
 56.8311  18252.5
 56.8711  18093.7
 56.9111  17980.7
 56.9511  18125.6
 56.9911  18297.3
 57.0311  18207.9
 57.0711  18201.9
 57.1111  18062
 57.1511  17948.5
 57.1911  17922.3
 57.2311  17698.2
 57.2711  17549
 57.3112  17172.4
 57.3512  16914.2
 57.3912  16768.7
 57.4312  16424.2
 57.4712  16354.6
 57.5112  15956.1
 57.5512  15798.4
 57.5912  15450.3
 57.6312  14969.6
 57.6712  14378.6
 57.7112  15012.2
 57.7512  14835.8
 57.7912  14553.9
 57.8313  14489.4
 57.8713  14572.9
 57.9113  14805
 57.9513  14858
 57.9913  15037.9
 58.0313  14947.5
 58.0713  14754.4
 58.1113  14149.6
 58.1513  13893.8
 58.1913  13145.9
 58.2313  12627.7
 58.2713  11450.1
 58.3113  10441
 58.3514  8284.07
 58.3914  7192.11
 58.4314  6903.75
 58.4714  6741.2
 58.5114  4765.92
 58.5514  2803.13
 58.5914  1659.44