File: pdfgetxn3-examples/Pt/series/Pt_bulk_ramp03-00905.chi
Pt_bulk_ramp03-00905.tif: 2-theta Scan
2-Theta Angle (Degrees)

       1465
 0.0200039  0.0000000E+00
 0.0600117  0.0000000E+00
 0.100019  0.0000000E+00
 0.140027  0.0000000E+00
 0.180035  0.0000000E+00
 0.220043  0.0000000E+00
 0.260051  0.0000000E+00
 0.300058  0.0000000E+00
 0.340066  0.0000000E+00
 0.380074  0.0000000E+00
 0.420082  0.0000000E+00
 0.46009  0.0000000E+00
 0.500097  0.0000000E+00
 0.540105  0.0000000E+00
 0.580113  0.0000000E+00
 0.620121  0.0000000E+00
 0.660128  0.0000000E+00
 0.700136  0.0000000E+00
 0.740144  16193.5
 0.780152  18988.6
 0.82016  29804
 0.860167  49035.1
 0.900175  75105.2
 0.940183  89356.2
 0.980191  89721.9
 1.0202  84598.7
 1.06021  78414.8
 1.10021  73911.6
 1.14022  69343.4
 1.18023  65697
 1.22024  62899
 1.26025  60395.1
 1.30025  58381.3
 1.34026  56732
 1.38027  55241.9
 1.42028  54128.4
 1.46028  53174.8
 1.50029  52178.5
 1.5403  51371.9
 1.58031  50624.6
 1.62032  49954.3
 1.66032  49499.7
 1.70033  49324.5
 1.74034  49640.3
 1.78035  50006.4
 1.82035  49770.8
 1.86036  48870.5
 1.90037  47813.6
 1.94038  47322.1
 1.98039  47330.5
 2.02039  47585.4
 2.0604  47812
 2.10041  47809.9
 2.14042  47587.4
 2.18042  47344.9
 2.22043  47257.4
 2.26044  47394.7
 2.30045  47514.7
 2.34046  47775.1
 2.38046  48013.8
 2.42047  48271.6
 2.46048  48536.4
 2.50049  48928.8
 2.54049  49476.5
 2.5805  49862
 2.62051  50031
 2.66052  49776.4
 2.70053  49056.8
 2.74053  48142.6
 2.78054  47205.2
 2.82055  46448.6
 2.86056  45941.5
 2.90056  45496.8
 2.94057  44911.5
 2.98058  43981.7
 3.02059  42898
 3.0606  41944.1
 3.1006  41231.2
 3.14061  40745.3
 3.18062  40310.1
 3.22063  39997.6
 3.26063  39797.7
 3.30064  39689.2
 3.34065  39786.7
 3.38066  40103.4
 3.42067  40463.5
 3.46067  40620.8
 3.50068  40518.2
 3.54069  40371.5
 3.5807  40371.4
 3.6207  40392
 3.66071  40361.9
 3.70072  40220.3
 3.74073  40094.2
 3.78074  39970
 3.82074  39774.3
 3.86075  39569.7
 3.90076  39431.1
 3.94077  39361.8
 3.98077  39354.2
 4.02078  39440.8
 4.06079  39678.2
 4.1008  39971.4
 4.14081  40272.3
 4.18081  40602.5
 4.22082  40966.1
 4.26083  41384.4
 4.30084  41919.6
 4.34084  42643.9
 4.38085  43563.9
 4.42086  44655.5
 4.46087  45987.5
 4.50088  47501.5
 4.54088  49179.1
 4.58089  51137.8
 4.6209  53433.7
 4.66091  56087.2
 4.70091  59159.1
 4.74092  62838.7
 4.78093  67381.3
 4.82094  73047
 4.86095  80070.9
 4.90095  88929.3
 4.94096  100411
 4.98097  115274
 5.02098  135596
 5.06098  163911
 5.10099  204253
 5.141  268767
 5.18101  381731
 5.22102  604300
 5.26102  1.09324e+06
 5.30103  2.01457e+06
 5.34104  3.14842e+06
 5.38105  3.67536e+06
 5.42105  3.67722e+06
 5.46106  3.13056e+06
 5.50107  1.99889e+06
 5.54108  1.04773e+06
 5.58109  562644
 5.62109  347876
 5.6611  246027
 5.70111  195967
 5.74112  169760
 5.78113  156643
 5.82113  152754
 5.86114  156202
 5.90115  168031
 5.94116  190753
 5.98116  231256
 6.02117  306249
 6.06118  446967
 6.10119  717219
 6.14119  1.16897e+06
 6.1812  1.70668e+06
 6.22121  2.06393e+06
 6.26122  1.96691e+06
 6.30123  1.48696e+06
 6.34123  923204
 6.38124  527335
 6.42125  304739
 6.46126  193770
 6.50127  136236
 6.54127  103980
 6.58128  84921.3
 6.62129  72555
 6.6613  64022.6
 6.7013  57986.2
 6.74131  53457.7
 6.78132  49995.7
 6.82133  47289.9
 6.86134  45025.9
 6.90134  43120.1
 6.94135  41490.4
 6.98136  40013
 7.02137  38809.8
 7.06137  37844.7
 7.10138  36978.2
 7.14139  36247.1
 7.1814  35638.8
 7.2214  35120.6
 7.26141  34685.1
 7.30142  34330
 7.34143  34072.6
 7.38144  33904.1
 7.42144  33752.2
 7.46145  33626.7
 7.50146  33558.6
 7.54147  33517.3
 7.58148  33539.7
 7.62148  33596.4
 7.66149  33731.2
 7.7015  33998.4
 7.74151  34333.5
 7.78151  34693
 7.82152  35134
 7.86153  35643.5
 7.90154  36272.8
 7.94155  37047.6
 7.98155  37920.2
 8.02156  38928.6
 8.06157  40095.2
 8.10158  41484
 8.14158  43138.6
 8.18159  45146.2
 8.2216  47573.9
 8.26161  50549.3
 8.30162  54310.1
 8.34162  59065.2
 8.38163  65232.2
 8.42164  73446.3
 8.46165  84582
 8.50165  100320
 8.54166  124087
 8.58167  162067
 8.62168  228634
 8.66169  353486
 8.70169  578691
 8.7417  932483
 8.78171  1.31272e+06
 8.82172  1.51687e+06
 8.86172  1.39413e+06
 8.90173  1.03938e+06
 8.94174  658898
 8.98175  391510
 9.02176  240433
 9.06176  160415
 9.10177  118310
 9.14178  94767.6
 9.18179  80562.5
 9.22179  71682.5
 9.2618  65826.1
 9.30181  61881.5
 9.34182  59288.2
 9.38183  57569.1
 9.42183  56513.5
 9.46184  56070
 9.50185  56034.2
 9.54186  56395.2
 9.58186  57200
 9.62187  58477.1
 9.66188  60295.2
 9.70189  62708.6
 9.7419  65913
 9.7819  69993.1
 9.82191  75138.4
 9.86192  81829.6
 9.90193  90469.6
 9.94193  102159
 9.98194  118246
 10.022  140700
 10.062  173961
 10.102  226404
 10.142  313610
 10.182  467092
 10.222  731653
 10.262  1.11862e+06
 10.302  1.53829e+06
 10.342  1.76869e+06
 10.382  1.66768e+06
 10.422  1.2945e+06
 10.462  873875
 10.502  555293
 10.5421  367019
 10.5821  273502
 10.6221  241442
 10.6621  260685
 10.7021  332461
 10.7421  447899
 10.7821  553523
 10.8221  577063
 10.8621  493832
 10.9021  356125
 10.9421  232558
 10.9821  151186
 11.0221  105869
 11.0622  81056.9
 11.1022  66957.6
 11.1422  58382
 11.1822  52677.6
 11.2222  48662.1
 11.2622  45738.2
 11.3022  43478.9
 11.3422  41723.7
 11.3822  40339.1
 11.4222  39189.6
 11.4622  38263.2
 11.5022  37477.7
 11.5422  36761.4
 11.5823  36176.9
 11.6223  35707.1
 11.6623  35350.4
 11.7023  35110.3
 11.7423  34977
 11.7823  34981.3
 11.8223  35122.2
 11.8623  35383.7
 11.9023  35824.9
 11.9423  36603.1
 11.9823  37874.7
 12.0223  39898.4
 12.0623  41291.1
 12.1024  43076.1
 12.1424  45810.7
 12.1824  50348.6
 12.2224  57064.3
 12.2624  67431.6
 12.3024  83759
 12.3424  109479
 12.3824  146486
 12.4224  189200
 12.4624  221838
 12.5024  226278
 12.5424  200238
 12.5824  158016
 12.6225  118036
 12.6625  89043.9
 12.7025  70635.2
 12.7425  59756.1
 12.7825  53488
 12.8225  49982.8
 12.8625  48193.5
 12.9025  47547.5
 12.9425  47737.6
 12.9825  48605.9
 13.0225  50097.5
 13.0625  52242.1
 13.1026  55134.3
 13.1426  58935.6
 13.1826  63961.6
 13.2226  70604.8
 13.2626  79509.5
 13.3026  91875.2
 13.3426  109646
 13.3826  136834
 13.4226  180714
 13.4626  253169
 13.5026  366761
 13.5426  516325
 13.5826  655274
 13.6227  716166
 13.6627  667377
 13.7027  550072
 13.7427  434151
 13.7827  368279
 13.8227  367734
 13.8627  428919
 13.9027  528104
 13.9427  612423
 13.9827  624936
 14.0227  549278
 14.0627  424508
 14.1027  301886
 14.1428  210296
 14.1828  150485
 14.2228  113423
 14.2628  90733.7
 14.3028  76452.1
 14.3428  67123.2
 14.3828  60861.6
 14.4228  56512
 14.4628  53419.7
 14.5028  51183.1
 14.5428  49613
 14.5828  48575.3
 14.6228  48022.8
 14.6629  47898.7
 14.7029  48173.6
 14.7429  48860.8
 14.7829  50074.5
 14.8229  51865.9
 14.8629  54441.8
 14.9029  58046.4
 14.9429  62987.5
 14.9829  69908.3
 15.0229  79909
 15.0629  94880.6
 15.1029  118352
 15.1429  155925
 15.183  214670
 15.223  294631
 15.263  377438
 15.303  426878
 15.343  415169
 15.383  349854
 15.423  264796
 15.463  190663
 15.503  138462
 15.543  105368
 15.583  85399.4
 15.623  73593.4
 15.663  66791
 15.7031  63181.5
 15.7431  61825.9
 15.7831  62256.6
 15.8231  64412.6
 15.8631  68451.2
 15.9031  74869.9
 15.9431  84573.9
 15.9831  99099.5
 16.0231  121304
 16.0631  155846
 16.1031  208282
 16.1431  280557
 16.1831  360711
 16.2232  419348
 16.2632  426434
 16.3032  377440
 16.3432  297640
 16.3832  218804
 16.4232  157687
 16.4632  116087
 16.5032  89277.8
 16.5432  72110.5
 16.5832  60921.5
 16.6232  53429.4
 16.6632  48261.3
 16.7033  44581.8
 16.7433  41945.2
 16.7833  39999.9
 16.8233  38539.8
 16.8633  37457.5
 16.9033  36668.9
 16.9433  36102.6
 16.9833  35758.4
 17.0233  35558.1
 17.0633  35500.9
 17.1033  35628.2
 17.1433  35927.8
 17.1833  36435.5
 17.2234  37188.2
 17.2634  38240.3
 17.3034  39667.4
 17.3434  41569.4
 17.3834  44199.1
 17.4234  47905.1
 17.4634  53277.4
 17.5034  61397.4
 17.5434  73695.1
 17.5834  91411.1
 17.6234  113220
 17.6634  133115
 17.7034  142736
 17.7435  137536
 17.7835  120960
 17.8235  101012
 17.8635  84003.9
 17.9035  72201.6
 17.9435  65188.8
 17.9835  61802.3
 18.0235  61117.7
 18.0635  62640.7
 18.1035  66009.1
 18.1435  71380.9
 18.1835  79249.5
 18.2235  90539.5
 18.2636  106935
 18.3036  131352
 18.3436  168116
 18.3836  221681
 18.4236  291597
 18.4636  364474
 18.5036  415448
 18.5436  424443
 18.5836  394803
 18.6236  351165
 18.6636  319198
 18.7036  308330
 18.7436  308803
 18.7837  301544
 18.8237  274160
 18.8637  229862
 18.9037  181694
 18.9437  140523
 18.9837  110091
 19.0237  89152.6
 19.0637  75167.3
 19.1037  65878.9
 19.1437  59641.3
 19.1837  55430
 19.2237  52587.7
 19.2637  50753.4
 19.3038  49740.5
 19.3438  49460.5
 19.3838  49891.4
 19.4238  51118.5
 19.4638  53327.9
 19.5038  56757.8
 19.5438  61949.9
 19.5838  69686.8
 19.6238  80997.3
 19.6638  96786.4
 19.7038  116724
 19.7438  137381
 19.7839  152028
 19.8239  154451
 19.8639  143462
 19.9039  124134
 19.9439  103403
 19.9839  85861.6
 20.0239  73037.4
 20.0639  64455.9
 20.1039  59160.2
 20.1439  56464.5
 20.1839  55775.6
 20.2239  56834.4
 20.2639  59797.3
 20.304  65103.5
 20.344  73596.6
 20.384  86618.8
 20.424  105397
 20.464  128796
 20.504  151934
 20.544  167592
 20.584  171578
 20.624  166963
 20.664  161174
 20.704  159243
 20.744  159512
 20.784  156042
 20.8241  144425
 20.8641  125674
 20.9041  104648
 20.9441  85655.9
 20.9841  70789.8
 21.0241  60023.2
 21.0641  52495.3
 21.1041  47317
 21.1441  43743.7
 21.1841  41260.9
 21.2241  39534.4
 21.2641  38421.1
 21.3041  37780
 21.3442  37589.2
 21.3842  37762.4
 21.4242  38244.3
 21.4642  39284.8
 21.5042  41026.6
 21.5442  43816.7
 21.5842  47966.5
 21.6242  53445.3
 21.6642  59355.9
 21.7042  63802.5
 21.7442  64993.9
 21.7842  62751.3
 21.8242  58573.5
 21.8643  54425
 21.9043  51541
 21.9443  50341
 21.9843  50765.5
 22.0243  52697
 22.0643  56180.5
 22.1043  61467.8
 22.1443  69130.2
 22.1843  80054.6
 22.2243  95451.5
 22.2643  116314
 22.3043  141699
 22.3443  167392
 22.3844  186396
 22.4244  192970
 22.4644  187552
 22.5044  176072
 22.5444  164543
 22.5844  154656
 22.6244  144007
 22.6644  130286
 22.7044  113761
 22.7444  96956.5
 22.7844  82322.5
 22.8244  70948.9
 22.8644  62735.8
 22.9045  57097.9
 22.9445  53440.8
 22.9845  51290.4
 23.0245  50326.1
 23.0645  50381.6
 23.1045  51403.2
 23.1445  53468.8
 23.1845  56792.8
 23.2245  61775.8
 23.2645  69130.1
 23.3045  79929.6
 23.3445  95121.6
 23.3846  114410
 23.4246  134873
 23.4646  150418
 23.5046  155059
 23.5446  147236
 23.5846  130977
 23.6246  112532
 23.6646  96624.4
 23.7046  85153.6
 23.7446  78149.4
 23.7846  75110.4
 23.8246  75743.8
 23.8646  80032
 23.9047  88421.3
 23.9447  101784
 23.9847  120738
 24.0247  143930
 24.0647  166470
 24.1047  180697
 24.1447  180555
 24.1847  165884
 24.2247  142433
 24.2647  117419
 24.3047  95688.6
 24.3447  78705.7
 24.3847  66110.2
 24.4248  57010.8
 24.4648  50524.7
 24.5048  45825.1
 24.5448  42376.5
 24.5848  39812.9
 24.6248  37921.6
 24.6648  36534.2
 24.7048  35526
 24.7448  34811
 24.7848  34374.5
 24.8248  34184.8
 24.8648  34245.7
 24.9048  34594.2
 24.9449  35296.3
 24.9849  36308.6
 25.0249  37568.2
 25.0649  38896.6
 25.1049  39963.5
 25.1449  40484.2
 25.1849  40411.7
 25.2249  39926.1
 25.2649  39401
 25.3049  39181.7
 25.3449  39400.9
 25.3849  40219.4
 25.4249  41748.2
 25.465  44131.4
 25.505  47618.2
 25.545  52487.3
 25.585  59002.2
 25.625  67216.2
 25.665  76493.1
 25.705  85698.5
 25.745  93784.4
 25.785  100561
 25.825  106499
 25.865  111348
 25.905  113338
 25.945  110378
 25.9851  102089
 26.0251  90520.2
 26.0651  78334.3
 26.1051  67650
 26.1451  59290
 26.1851  53168.1
 26.2251  48921.2
 26.2651  46199.7
 26.3051  44654.9
 26.3451  44133.2
 26.3851  44540.2
 26.4251  45907.8
 26.4651  48368.2
 26.5052  52127.9
 26.5452  57252
 26.5852  63497.2
 26.6252  69937.8
 26.6652  74862.4
 26.7052  76644.2
 26.7452  74831.5
 26.7852  70432.7
 26.8252  65139.2
 26.8652  60481.6
 26.9052  57302.5
 26.9452  55887.8
 26.9853  56338.1
 27.0253  58778.8
 27.0653  63492.2
 27.1053  70742.6
 27.1453  80328.5
 27.1853  90990.4
 27.2253  100238
 27.2653  105579
 27.3053  105938
 27.3453  102403
 27.3853  96738.7
 27.4253  90017.5
 27.4653  82563.8
 27.5054  74499.2
 27.5454  66365.5
 27.5854  59018.7
 27.6254  52973.9
 27.6654  48336.4
 27.7054  44970
 27.7454  42644.6
 27.7854  41186.5
 27.8254  40431.8
 27.8654  40336.8
 27.9054  40882.2
 27.9454  42090.4
 27.9854  44015.8
 28.0255  46722
 28.0655  50011.5
 28.1055  53360.7
 28.1455  55933.7
 28.1855  57051.7
 28.2255  56648.8
 28.2655  55296.5
 28.3055  53858.2
 28.3455  53011.5
 28.3855  53275.4
 28.4255  54952.6
 28.4655  58307.6
 28.5055  63579.4
 28.5456  71056.3
 28.5856  80645.5
 28.6256  91417.2
 28.6656  101396
 28.7056  108419
 28.7456  111329
 28.7856  110490
 28.8256  106908
 28.8656  101262
 28.9056  93730.3
 28.9456  84706.6
 28.9856  75138
 29.0256  66117.4
 29.0657  58416.6
 29.1057  52276.2
 29.1457  47572.8
 29.1857  44149.1
 29.2257  41768.8
 29.2657  40228.4
 29.3057  39414.6
 29.3457  39322.1
 29.3857  39971.9
 29.4257  41426.3
 29.4657  43598.4
 29.5057  46100.8
 29.5458  48196.1
 29.5858  49153.7
 29.6258  48623.6
 29.6658  46948.2
 29.7058  44857.2
 29.7458  43050.2
 29.7858  41968.9
 29.8258  41817.1
 29.8658  42631
 29.9058  44417.6
 29.9458  47093.3
 29.9858  50323.5
 30.0258  53409.4
 30.0659  55361.2
 30.1059  55456.1
 30.1459  53583.9
 30.1859  50244.9
 30.2259  46310
 30.2659  42535.8
 30.3059  39298.6
 30.3459  36736.1
 30.3859  34775.5
 30.4259  33355.7
 30.4659  32378.9
 30.5059  31771.7
 30.5459  31507
 30.586  31522
 30.626  31821.1
 30.666  32446.8
 30.706  33464.4
 30.746  34904.6
 30.786  36790.3
 30.826  39074.1
 30.866  41403.7
 30.906  43239.1
 30.946  44255.6
 30.986  44367.3
 31.026  43907.6
 31.066  43441.7
 31.1061  43453.3
 31.1461  44241.5
 31.1861  46051.7
 31.2261  49104.4
 31.2661  53516.8
 31.3061  59098.4
 31.3461  65206.7
 31.3861  70635.1
 31.4261  74060.9
 31.4661  74861.3
 31.5061  73279.5
 31.5461  70008.5
 31.5861  65752.2
 31.6262  61078
 31.6662  56379.5
 31.7062  52038.4
 31.7462  48348.6
 31.7862  45507.3
 31.8262  43551.2
 31.8662  42435.8
 31.9062  42131.1
 31.9462  42605.1
 31.9862  43927.3
 32.0262  46153.3
 32.0662  49318.2
 32.1062  53232.7
 32.1463  57437.3
 32.1863  61043.9
 32.2263  63097.3
 32.2663  63000.8
 32.3063  61100.4
 32.3463  58246.8
 32.3863  55399.1
 32.4263  53307.9
 32.4663  52390.8
 32.5063  52811.6
 32.5463  54626.6
 32.5863  57655.7
 32.6264  61273.4
 32.6664  64603.8
 32.7064  66664.5
 32.7464  66869.6
 32.7864  65227.7
 32.8264  62163.5
 32.8664  58242.2
 32.9064  53896.4
 32.9464  49458.1
 32.9864  45312.7
 33.0264  41664.4
 33.0664  38625.4
 33.1064  36183.2
 33.1465  34281.5
 33.1865  32827.9
 33.2265  31731
 33.2665  30921
 33.3065  30346.2
 33.3465  29976.9
 33.3865  29771
 33.4265  29767.2
 33.4665  29901.3
 33.5065  30213.2
 33.5465  30718.8
 33.5865  31423.8
 33.6265  32409.8
 33.6666  33752.5
 33.7066  35500.3
 33.7466  37775.6
 33.7866  40680.2
 33.8266  44152.9
 33.8666  48060.4
 33.9066  52010.8
 33.9466  55608
 33.9866  58472.7
 34.0266  60250.7
 34.0666  60672.3
 34.1066  59514.9
 34.1466  56828.8
 34.1867  53089.6
 34.2267  49021.4
 34.2667  45238.2
 34.3067  42076.4
 34.3467  39660.1
 34.3867  38000.8
 34.4267  37012.6
 34.4667  36659.5
 34.5067  36898.3
 34.5467  37621.9
 34.5867  38698.3
 34.6267  39880.8
 34.6667  40768.8
 34.7068  41030.6
 34.7468  40549.7
 34.7868  39522.3
 34.8268  38308.1
 34.8668  37205.9
 34.9068  36489.3
 34.9468  36267.9
 34.9868  36519.4
 35.0268  37216
 35.0668  38073.7
 35.1068  38729.9
 35.1468  38807.7
 35.1868  38143.2
 35.2269  36813.4
 35.2669  35110.3
 35.3069  33377.7
 35.3469  31821.9
 35.3869  30538.3
 35.4269  29559.5
 35.4669  28844.8
 35.5069  28357.9
 35.5469  28093.1
 35.5869  28012.2
 35.6269  28111.9
 35.6669  28418.7
 35.7069  28900.2
 35.747  29535.4
 35.787  30353.4
 35.827  31269.7
 35.867  32214.9
 35.907  33199.4
 35.947  34172.3
 35.987  35299.8
 36.027  36764.1
 36.067  38693.3
 36.107  41215.5
 36.147  44460.2
 36.187  48242.4
 36.2271  52292.4
 36.2671  56002.4
 36.3071  58665.2
 36.3471  59831.6
 36.3871  59404.6
 36.4271  57602.5
 36.4671  54854.6
 36.5071  51554
 36.5471  48056.9
 36.5871  44769.8
 36.6271  41906.7
 36.6671  39631.5
 36.7071  37924.5
 36.7471  36776.1
 36.7872  36163
 36.8272  36068
 36.8672  36464.5
 36.9072  37268.6
 36.9472  38226.8
 36.9872  39136
 37.0272  39684
 37.0672  39738.9
 37.1072  39435.6
 37.1472  38965.4
 37.1872  38653.4
 37.2272  38751
 37.2672  39346
 37.3073  40543.5
 37.3473  42163.3
 37.3873  43936.3
 37.4273  45501.2
 37.4673  46487.6
 37.5073  46696.4
 37.5473  46061
 37.5873  44739.8
 37.6273  42865.2
 37.6673  40664.6
 37.7073  38464
 37.7473  36366.7
 37.7874  34611.6
 37.8274  33229.9
 37.8674  32222.9
 37.9074  31547.6
 37.9474  31205.9
 37.9874  31184.7
 38.0274  31374.4
 38.0674  31744.4
 38.1074  32130.9
 38.1474  32367
 38.1874  32403.8
 38.2274  32258.8
 38.2674  32101.9
 38.3075  32118.9
 38.3475  32340.7
 38.3875  32838.7
 38.4275  33619.5
 38.4675  34536.9
 38.5075  35412.6
 38.5475  36021.6
 38.5875  36206.4
 38.6275  35883.2
 38.6675  35202.2
 38.7075  34298.1
 38.7475  33415.4
 38.7875  32339.7
 38.8276  31511.9
 38.8676  30923.6
 38.9076  30605
 38.9476  30539.1
 38.9876  30777
 39.0276  31343.3
 39.0676  32191.8
 39.1076  33241.9
 39.1476  34464.2
 39.1876  35513.1
 39.2276  36213.8
 39.2676  36495.7
 39.3076  36353.1
 39.3477  36001.3
 39.3877  35659.6
 39.4277  35583.2
 39.4677  35909.5
 39.5077  36589.6
 39.5477  37476.3
 39.5877  38237.6
 39.6277  38537.8
 39.6677  38159.7
 39.7077  37107.8
 39.7477  35534.5
 39.7877  33790.2
 39.8278  32135.6
 39.8678  30700.2
 39.9078  29499.2
 39.9478  28576.2
 39.9878  27893.8
 40.0278  27390.4
 40.0678  27132.4
 40.1078  26983.5
 40.1478  27087.2
 40.1878  27233.6
 40.2278  27445.7
 40.2678  27686
 40.3078  27878.7
 40.3479  28019.9
 40.3879  28187.2
 40.4279  28413
 40.4679  28747
 40.5079  29266
 40.5479  29999.7
 40.5879  30983.5
 40.6279  32194.3
 40.6679  33549.4
 40.7079  34917.3
 40.7479  36098.1
 40.7879  36900.7
 40.8279  37135.7
 40.868  36779.1
 40.908  35885.5
 40.948  34729.1
 40.988  33515.1
 41.028  32444
 41.068  31651.5
 41.108  31164
 41.148  30934.4
 41.188  31005.4
 41.228  31334.2
 41.268  31836.4
 41.308  32335
 41.348  32761.9
 41.3881  33053
 41.4281  33259.8
 41.4681  33453.3
 41.5081  33848.8
 41.5481  34494.3
 41.5881  35383.1
 41.6281  36444.1
 41.6681  37497.3
 41.7081  38301.8
 41.7481  38620.5
 41.7881  38354.8
 41.8281  37492.8
 41.8681  36260.3
 41.9082  34852.6
 41.9482  33445.4
 41.9882  32151.2
 42.0282  31045.9
 42.0682  30152.4
 42.1082  29469.6
 42.1482  29048.3
 42.1882  28799.5
 42.2282  28735
 42.2682  28847.4
 42.3082  29068.2
 42.3482  29331.1
 42.3882  29673.6
 42.4283  30084
 42.4683  30599.9
 42.5083  31297.1
 42.5483  32177.4
 42.5883  33334
 42.6283  34693.9
 42.6683  36167.7
 42.7083  37497.2
 42.7483  38475.8
 42.7883  38968.5
 42.8283  38853.4
 42.8683  38165.7
 42.9083  37043.8
 42.9484  35610.7
 42.9884  34094.7
 43.0284  32597.2
 43.0684  31299.5
 43.1084  30261.5
 43.1484  29472.4
 43.1884  28915.9
 43.2284  28546.1
 43.2684  28373.6
 43.3084  28295.9
 43.3484  28216.7
 43.3884  28021.6
 43.4285  27731.7
 43.4685  27410.8
 43.5085  27085.7
 43.5485  26800.4
 43.5885  26672.5
 43.6285  26579.9
 43.6685  26555.6
 43.7085  26523.6
 43.7485  26358.4
 43.7885  26064.1
 43.8285  25657.8
 43.8685  25200.3
 43.9085  24712.9
 43.9486  24264.1
 43.9886  23888.2
 44.0286  23616.9
 44.0686  23417.3
 44.1086  23306.1
 44.1486  23275.2
 44.1886  23341.2
 44.2286  23449.9
 44.2686  23690.7
 44.3086  23968.2
 44.3486  24324.2
 44.3886  24690.6
 44.4286  25145.2
 44.4687  25669
 44.5087  26328.9
 44.5487  27133.1
 44.5887  28079.4
 44.6287  29071.5
 44.6687  30049.4
 44.7087  30874.6
 44.7487  31406.1
 44.7887  31576.1
 44.8287  31446.4
 44.8687  31003.1
 44.9087  30422.6
 44.9487  29800
 44.9888  29218
 45.0288  28724.8
 45.0688  28455.5
 45.1088  28360.2
 45.1488  28457.5
 45.1888  28734.2
 45.2288  29132.3
 45.2688  29580.2
 45.3088  29970.5
 45.3488  30193.7
 45.3888  30238.4
 45.4288  30188.6
 45.4688  30170.1
 45.5089  30176.7
 45.5489  30364.1
 45.5889  30661.7
 45.6289  31013.7
 45.6689  31233
 45.7089  31332.5
 45.7489  31150.3
 45.7889  30678
 45.8289  30057
 45.8689  29322.1
 45.9089  28525.4
 45.9489  27789.3
 45.9889  27121.6
 46.029  26574.1
 46.069  26154
 46.109  25867.2
 46.149  25713.7
 46.189  25631.7
 46.229  25631.6
 46.269  25714.2
 46.309  25795
 46.349  25960.7
 46.389  26184.7
 46.429  26480.7
 46.469  26932.8
 46.509  27497.5
 46.5491  28127.4
 46.5891  28767
 46.6291  29351.5
 46.6691  29719.4
 46.7091  29850.2
 46.7491  29762.9
 46.7891  29453
 46.8291  28995.4
 46.8691  28501.8
 46.9091  28024.4
 46.9491  27701.2
 46.9891  27504.6
 47.0292  27431.2
 47.0692  27532.4
 47.1092  27691.9
 47.1492  27937.8
 47.1892  28128.8
 47.2292  28216.9
 47.2692  28202
 47.3092  28079.1
 47.3492  27888.4
 47.3892  27728.9
 47.4292  27662.6
 47.4692  27670.4
 47.5092  27637.1
 47.5493  27558
 47.5893  27362.1
 47.6293  26986.5
 47.6693  26502.4
 47.7093  25953.1
 47.7493  25440.3
 47.7893  24950.1
 47.8293  24530.1
 47.8693  24231.2
 47.9093  24025.3
 47.9493  23959.6
 47.9893  23997.9
 48.0293  24112.1
 48.0694  24254.7
 48.1094  24400.1
 48.1494  24551.5
 48.1894  24914.7
 48.2294  25202.2
 48.2694  25495.8
 48.3094  25803.7
 48.3494  26196.8
 48.3894  26661.3
 48.4294  27071.1
 48.4694  27390.2
 48.5094  27507
 48.5494  27234.3
 48.5895  26937.7
 48.6295  26376.5
 48.6695  25753.3
 48.7095  25105.5
 48.7495  24428
 48.7895  23727.9
 48.8295  23309.1
 48.8695  22969.1
 48.9095  22728.6
 48.9495  22519.6
 48.9895  22420.6
 49.0295  22285.2
 49.0695  22195
 49.1096  22236
 49.1496  22209.9
 49.1896  22265.3
 49.2296  22399.4
 49.2696  22561.7
 49.3096  22689.6
 49.3496  22829.4
 49.3896  22981.6
 49.4296  23028.1
 49.4696  23013.1
 49.5096  22815.8
 49.5496  22655.6
 49.5896  22433.4
 49.6297  22266.6
 49.6697  22096
 49.7097  21788.7
 49.7497  21571.7
 49.7897  21451.1
 49.8297  21337.8
 49.8697  21334
 49.9097  21358.5
 49.9497  21461.4
 49.9897  21696.5
 50.0297  21960.6
 50.0697  22257
 50.1097  22689.4
 50.1498  23165.2
 50.1898  23753
 50.2298  24334.7
 50.2698  24788.8
 50.3098  25210.1
 50.3498  25478.4
 50.3898  25578.7
 50.4298  25501.6
 50.4698  25295.6
 50.5098  25019.2
 50.5498  24766.1
 50.5898  24557.5
 50.6299  24470.3
 50.6699  24462.5
 50.7099  24480
 50.7499  24658.8
 50.7899  24814.6
 50.8299  25020.2
 50.8699  25133.3
 50.9099  25214.4
 50.9499  25323.3
 50.9899  25353.3
 51.0299  25531.2
 51.0699  25697.5
 51.1099  25776.9
 51.15  25842.8
 51.19  25741.9
 51.23  25418.3
 51.27  25038.3
 51.31  24547.5
 51.35  23942.9
 51.39  23382.2
 51.43  22913.4
 51.47  22569.3
 51.51  22193.8
 51.55  21927.8
 51.59  21762.8
 51.63  21599.2
 51.6701  21639.2
 51.7101  21644.1
 51.7501  21705.6
 51.7901  21850.6
 51.8301  22016.1
 51.8701  22328.7
 51.9101  22674.2
 51.9501  23003
 51.9901  23373.6
 52.0301  23686.8
 52.0701  23972.8
 52.1101  24150.2
 52.1501  24149.8
 52.1902  23999.4
 52.2302  23804.4
 52.2702  23445.1
 52.3102  23216.7
 52.3502  22992.8
 52.3902  22840.2
 52.4302  22755.4
 52.4702  22684.7
 52.5102  22643.6
 52.5502  22599.9
 52.5902  22667.1
 52.6302  22506
 52.6703  22339.1
 52.7103  22113
 52.7503  21978.1
 52.7903  21843.5
 52.8303  21755.4
 52.8703  21674.6
 52.9103  21586.8
 52.9503  21453
 52.9903  21328.9
 53.0303  21182.3
 53.0703  21028.9
 53.1103  20844.8
 53.1503  20704.8
 53.1904  20598.1
 53.2304  20551.7
 53.2704  20590
 53.3104  20638.9
 53.3504  20754
 53.3904  20886.4
 53.4304  20924.3
 53.4704  21122
 53.5104  21303.1
 53.5504  21516.1
 53.5904  21690.2
 53.6304  21925.4
 53.6704  22164.3
 53.7105  22434.6
 53.7505  22625.9
 53.7905  22708
 53.8305  22715
 53.8705  22579.2
 53.9105  22356.5
 53.9505  22042.1
 53.9905  21618.2
 54.0305  21381.4
 54.0705  21051.5
 54.1105  20811.6
 54.1505  20665
 54.1905  20496.2
 54.2306  20387.5
 54.2706  20332.8
 54.3106  20268.1
 54.3506  20124.5
 54.3906  20122.5
 54.4306  19939.7
 54.4706  19895.4
 54.5106  19838.1
 54.5506  19719.3
 54.5906  19668.7
 54.6306  19609.1
 54.6706  19508.9
 54.7106  19397.5
 54.7507  19249.9
 54.7907  19079
 54.8307  19031.2
 54.8707  18920
 54.9107  18842.6
 54.9507  18891.4
 54.9907  18913.1
 55.0307  18937.8
 55.0707  19096.2
 55.1107  19137.7
 55.1507  19225
 55.1907  19355.9
 55.2307  19462.9
 55.2708  19547.4
 55.3108  19722.5
 55.3508  19951.8
 55.3908  20145.9
 55.4308  20300.8
 55.4708  20462.5
 55.5108  20444.4
 55.5508  20381.8
 55.5908  20411.1
 55.6308  20454.1
 55.6708  20374
 55.7108  20365.1
 55.7508  20417.8
 55.7909  20474.3
 55.8309  20558
 55.8709  20601.5
 55.9109  20836.6
 55.9509  20953.8
 55.9909  20988.8
 56.0309  21248.4
 56.0709  21300.8
 56.1109  21390.7
 56.1509  21529.9
 56.1909  21504.9
 56.2309  21693
 56.2709  21589.1
 56.311  21536.6
 56.351  21340.9
 56.391  21103.4
 56.431  20655.2
 56.471  20269.4
 56.511  20143.9
 56.551  19689.3
 56.591  19299.9
 56.631  18990.2
 56.671  18908.2
 56.711  18747.4
 56.751  18541.7
 56.791  18491
 56.8311  18200.5
 56.8711  18187.4
 56.9111  18197.2
 56.9511  18166.3
 56.9911  18208.3
 57.0311  18219.1
 57.0711  18183.3
 57.1111  18036
 57.1511  17997.3
 57.1911  18021.3
 57.2311  17795.1
 57.2711  17547.8
 57.3112  17341.2
 57.3512  16896.8
 57.3912  16764.3
 57.4312  16471.7
 57.4712  16397.1
 57.5112  15868.9
 57.5512  15859.1
 57.5912  15313.6
 57.6312  14874
 57.6712  14464.6
 57.7112  14867.4
 57.7512  14872.6
 57.7912  14517.7
 57.8313  14562.4
 57.8713  14564.3
 57.9113  14857.7
 57.9513  14972.3
 57.9913  15065.3
 58.0313  15198
 58.0713  15033.6
 58.1113  14162.9
 58.1513  14037.6
 58.1913  13271.5
 58.2313  12838.5
 58.2713  11819.2
 58.3113  10365.8
 58.3514  8173.73
 58.3914  7540.92
 58.4314  6973.14
 58.4714  6473.01
 58.5114  5016.6
 58.5514  3231.2
 58.5914  1866.93