File: pdfgetxn3-examples/Pt/series/Pt_bulk_ramp03-00903.chi
Pt_bulk_ramp03-00903.tif: 2-theta Scan
2-Theta Angle (Degrees)

       1465
 0.0200039  0.0000000E+00
 0.0600117  0.0000000E+00
 0.100019  0.0000000E+00
 0.140027  0.0000000E+00
 0.180035  0.0000000E+00
 0.220043  0.0000000E+00
 0.260051  0.0000000E+00
 0.300058  0.0000000E+00
 0.340066  0.0000000E+00
 0.380074  0.0000000E+00
 0.420082  0.0000000E+00
 0.46009  0.0000000E+00
 0.500097  0.0000000E+00
 0.540105  0.0000000E+00
 0.580113  0.0000000E+00
 0.620121  0.0000000E+00
 0.660128  0.0000000E+00
 0.700136  0.0000000E+00
 0.740144  16065.4
 0.780152  18917.4
 0.82016  29683.2
 0.860167  48657.5
 0.900175  74630.4
 0.940183  88876.3
 0.980191  89127
 1.0202  83928
 1.06021  77788.5
 1.10021  73284.6
 1.14022  68776.2
 1.18023  65199.4
 1.22024  62446.6
 1.26025  60043.4
 1.30025  58042.9
 1.34026  56343
 1.38027  54811.3
 1.42028  53722.5
 1.46028  52783.7
 1.50029  51859.1
 1.5403  51081.3
 1.58031  50312.8
 1.62032  49673.6
 1.66032  49245.4
 1.70033  49124.3
 1.74034  49434
 1.78035  49738.5
 1.82035  49400.6
 1.86036  48386
 1.90037  47326
 1.94038  46883.4
 1.98039  46947.8
 2.02039  47276.8
 2.0604  47513.9
 2.10041  47485.6
 2.14042  47221.1
 2.18042  46960.8
 2.22043  46970
 2.26044  47100.6
 2.30045  47194.1
 2.34046  47436.1
 2.38046  47649.8
 2.42047  47843
 2.46048  48105.9
 2.50049  48501.7
 2.54049  49023.8
 2.5805  49358.8
 2.62051  49497.6
 2.66052  49270
 2.70053  48567.8
 2.74053  47720.3
 2.78054  46848.2
 2.82055  46068.8
 2.86056  45502.6
 2.90056  45086.3
 2.94057  44507.8
 2.98058  43585.3
 3.02059  42527.5
 3.0606  41654.9
 3.1006  41009.6
 3.14061  40502.5
 3.18062  40054.9
 3.22063  39728.4
 3.26063  39510.9
 3.30064  39368.1
 3.34065  39480.6
 3.38066  39805.4
 3.42067  40134.6
 3.46067  40250.1
 3.50068  40113.1
 3.54069  39982.3
 3.5807  39998.5
 3.6207  40038.8
 3.66071  40005
 3.70072  39899.4
 3.74073  39805
 3.78074  39612.3
 3.82074  39377.1
 3.86075  39193.9
 3.90076  39075.5
 3.94077  39002.7
 3.98077  38956
 4.02078  39043.3
 4.06079  39280.2
 4.1008  39571.9
 4.14081  39855.1
 4.18081  40158.9
 4.22082  40557.2
 4.26083  41061.5
 4.30084  41619.6
 4.34084  42307.5
 4.38085  43150.2
 4.42086  44209.8
 4.46087  45524.9
 4.50088  47041.5
 4.54088  48716.5
 4.58089  50659.8
 4.6209  52895.2
 4.66091  55492.9
 4.70091  58566.4
 4.74092  62241.4
 4.78093  66734.9
 4.82094  72298.2
 4.86095  79199.5
 4.90095  88005.1
 4.94096  99385.2
 4.98097  114053
 5.02098  134128
 5.06098  162133
 5.10099  202048
 5.141  265865
 5.18101  377640
 5.22102  597999
 5.26102  1.08233e+06
 5.30103  1.9974e+06
 5.34104  3.13336e+06
 5.38105  3.67154e+06
 5.42105  3.67461e+06
 5.46106  3.11953e+06
 5.50107  1.98674e+06
 5.54108  1.04035e+06
 5.58109  558238
 5.62109  344896
 5.6611  243744
 5.70111  194036
 5.74112  168011
 5.78113  154986
 5.82113  151157
 5.86114  154538
 5.90115  166160
 5.94116  188620
 5.98116  228695
 6.02117  302937
 6.06118  442243
 6.10119  709748
 6.14119  1.15752e+06
 6.1812  1.69156e+06
 6.22121  2.0473e+06
 6.26122  1.95183e+06
 6.30123  1.4758e+06
 6.34123  916219
 6.38124  523172
 6.42125  302270
 6.46126  192128
 6.50127  135043
 6.54127  103062
 6.58128  84158.5
 6.62129  71877.9
 6.6613  63433.1
 6.7013  57477.4
 6.74131  52985.2
 6.78132  49549.7
 6.82133  46869.1
 6.86134  44654.2
 6.90134  42769.6
 6.94135  41135.5
 6.98136  39644.3
 7.02137  38439.2
 7.06137  37488.7
 7.10138  36641.5
 7.14139  35919.9
 7.1814  35310.7
 7.2214  34783
 7.26141  34346.2
 7.30142  34001
 7.34143  33751.9
 7.38144  33570.6
 7.42144  33441.5
 7.46145  33358.2
 7.50146  33277.3
 7.54147  33215.4
 7.58148  33212.8
 7.62148  33267.1
 7.66149  33418.7
 7.7015  33690.8
 7.74151  34007.6
 7.78151  34347.1
 7.82152  34781.6
 7.86153  35281
 7.90154  35890.9
 7.94155  36637.5
 7.98155  37535.8
 8.02156  38531.2
 8.06157  39661.4
 8.10158  41040
 8.14158  42674.5
 8.18159  44654
 8.2216  47067.6
 8.26161  50035.8
 8.30162  53753.9
 8.34162  58437.4
 8.38163  64542.6
 8.42164  72683.7
 8.46165  83716.9
 8.50165  99319.1
 8.54166  122838
 8.58167  160372
 8.62168  226118
 8.66169  349491
 8.70169  572280
 8.7417  922805
 8.78171  1.30049e+06
 8.82172  1.50413e+06
 8.86172  1.38333e+06
 8.90173  1.03174e+06
 8.94174  654075
 8.98175  388544
 9.02176  238526
 9.06176  159071
 9.10177  117252
 9.14178  93860.5
 9.18179  79732.7
 9.22179  70948.4
 9.2618  65156.9
 9.30181  61232.3
 9.34182  58657.9
 9.38183  56936.8
 9.42183  55876.6
 9.46184  55424.7
 9.50185  55383.8
 9.54186  55770.2
 9.58186  56580
 9.62187  57830.8
 9.66188  59630
 9.70189  62016.5
 9.7419  65143.1
 9.7819  69144.2
 9.82191  74279.2
 9.86192  80936.9
 9.90193  89494.1
 9.94193  101074
 9.98194  116999
 10.022  139217
 10.062  172097
 10.102  223962
 10.142  310181
 10.182  461965
 10.222  723824
 10.262  1.10748e+06
 10.302  1.52456e+06
 10.342  1.75464e+06
 10.382  1.65564e+06
 10.422  1.28571e+06
 10.462  867989
 10.502  551322
 10.5421  364153
 10.5821  271126
 10.6221  239089
 10.6621  257953
 10.7021  328906
 10.7421  443154
 10.7821  548119
 10.8221  571985
 10.8621  489857
 10.9021  353477
 10.9421  230848
 10.9821  150016
 11.0221  104992
 11.0622  80317.3
 11.1022  66303.7
 11.1422  57766.6
 11.1822  52097
 11.2222  48128.8
 11.2622  45230.6
 11.3022  42973.5
 11.3422  41223
 11.3822  39845.2
 11.4222  38731.2
 11.4622  37813.7
 11.5022  37045
 11.5422  36361.2
 11.5823  35770.4
 11.6223  35319.9
 11.6623  34958.5
 11.7023  34695.9
 11.7423  34561.2
 11.7823  34571.1
 11.8223  34720.1
 11.8623  35006.5
 11.9023  35455.3
 11.9423  36217.6
 11.9823  37455.6
 12.0223  39478
 12.0623  40868.3
 12.1024  42614.9
 12.1424  45324.8
 12.1824  49821.5
 12.2224  56447.3
 12.2624  66667.6
 12.3024  82775.6
 12.3424  108240
 12.3824  144909
 12.4224  187263
 12.4624  219738
 12.5024  224392
 12.5424  198739
 12.5824  156853
 12.6225  117122
 12.6625  88303.5
 12.7025  69992.2
 12.7425  59172.9
 12.7825  52953.4
 12.8225  49458.4
 12.8625  47681.8
 12.9025  47046.2
 12.9425  47203
 12.9825  48037
 13.0225  49510.7
 13.0625  51628.6
 13.1026  54504.2
 13.1426  58281.1
 13.1826  63238.4
 13.2226  69781.7
 13.2626  78592.3
 13.3026  90834.6
 13.3426  108440
 13.3826  135322
 13.4226  178642
 13.4626  250285
 13.5026  362703
 13.5426  510980
 13.5826  649091
 13.6227  710137
 13.6627  662315
 13.7027  546129
 13.7427  430897
 13.7827  365161
 13.8227  364203
 13.8627  424555
 13.9027  522889
 13.9427  606967
 13.9827  619918
 14.0227  545235
 14.0627  421647
 14.1027  299918
 14.1428  208815
 14.1828  149313
 14.2228  112494
 14.2628  89926.3
 14.3028  75723.6
 14.3428  66446.5
 14.3828  60195.1
 14.4228  55861.3
 14.4628  52793.7
 14.5028  50578.7
 14.5428  49035.8
 14.5828  48030.4
 14.6228  47470
 14.6629  47335.1
 14.7029  47621.2
 14.7429  48304.1
 14.7829  49503.9
 14.8229  51275.8
 14.8629  53774.7
 14.9029  57304.4
 14.9429  62226.2
 14.9829  69104
 15.0229  79002.4
 15.0629  93807.8
 15.1029  117011
 15.1429  154141
 15.183  212247
 15.223  291427
 15.263  373636
 15.303  423066
 15.343  411959
 15.383  347474
 15.423  263126
 15.463  189430
 15.503  137446
 15.543  104497
 15.583  84608.6
 15.623  72846.6
 15.663  66082.1
 15.7031  62497.4
 15.7431  61135.9
 15.7831  61557.3
 15.8231  63690.5
 15.8631  67720.6
 15.9031  74076.6
 15.9431  83642.1
 15.9831  98017.1
 16.0231  120010
 16.0631  154202
 16.1031  206040
 16.1431  277522
 16.1831  357102
 16.2232  415553
 16.2632  423040
 16.3032  374819
 16.3432  295808
 16.3832  217546
 16.4232  156737
 16.4632  115320
 16.5032  88593.8
 16.5432  71468.4
 16.5832  60342
 16.6232  52896.9
 16.6632  47776.3
 16.7033  44128.8
 16.7433  41504.1
 16.7833  39561.8
 16.8233  38109.1
 16.8633  37028.1
 16.9033  36230.6
 16.9433  35669.2
 16.9833  35316.2
 17.0233  35133.9
 17.0633  35086.4
 17.1033  35224.2
 17.1433  35537.7
 17.1833  36026.9
 17.2234  36770.3
 17.2634  37787.5
 17.3034  39194.8
 17.3434  41099.4
 17.3834  43687.9
 17.4234  47312.8
 17.4634  52617.3
 17.5034  60671.2
 17.5434  72887.5
 17.5834  90434.6
 17.6234  112063
 17.6634  131863
 17.7034  141504
 17.7435  136442
 17.7835  120054
 17.8235  100237
 17.8635  83334.1
 17.9035  71589.8
 17.9435  64572.7
 17.9835  61181.9
 18.0235  60474.3
 18.0635  61939.8
 18.1035  65244.5
 18.1435  70555.7
 18.1835  78336
 18.2235  89508.5
 18.2636  105754
 18.3036  129944
 18.3436  166333
 18.3836  219354
 18.4236  288638
 18.4636  361055
 18.5036  411930
 18.5436  421192
 18.5836  392026
 18.6236  348669
 18.6636  316743
 18.7036  305841
 18.7436  306343
 18.7837  299285
 18.8237  272307
 18.8637  228418
 18.9037  180538
 18.9437  139574
 18.9837  109277
 19.0237  88420.3
 19.0637  74492.3
 19.1037  65235.7
 19.1437  59009.6
 19.1837  54797.2
 19.2237  51971.7
 19.2637  50145.1
 19.3038  49139.2
 19.3438  48879.1
 19.3838  49315.4
 19.4238  50529.9
 19.4638  52706.7
 19.5038  56105.1
 19.5438  61239
 19.5838  68910.2
 19.6238  80138.1
 19.6638  95819.8
 19.7038  115619
 19.7438  136170
 19.7839  150770
 19.8239  153276
 19.8639  142467
 19.9039  123328
 19.9439  102713
 19.9839  85218.4
 20.0239  72418.7
 20.0639  63849.9
 20.1039  58574.7
 20.1439  55871.1
 20.1839  55171.1
 20.2239  56234.6
 20.2639  59157.4
 20.304  64365.6
 20.344  72762.7
 20.384  85666.9
 20.424  104313
 20.464  127554
 20.504  150553
 20.544  166202
 20.584  170250
 20.624  165725
 20.664  159985
 20.704  158030
 20.744  158292
 20.784  154916
 20.8241  143476
 20.8641  124903
 20.9041  103965
 20.9441  85057.4
 20.9841  70275.6
 21.0241  59548.9
 21.0641  52019.6
 21.1041  46835
 21.1441  43273.1
 21.1841  40812.8
 21.2241  39117.8
 21.2641  38010
 21.3041  37370.9
 21.3442  37153
 21.3842  37293.4
 21.4242  37793.6
 21.4642  38819.8
 21.5042  40557.8
 21.5442  43332.3
 21.5842  47428.7
 21.6242  52842.8
 21.6642  58716.8
 21.7042  63148
 21.7442  64389.5
 21.7842  62190.6
 21.8242  58046.4
 21.8643  53921.6
 21.9043  51047.1
 21.9443  49820.5
 21.9843  50221
 22.0243  52135
 22.0643  55563
 22.1043  60799
 22.1443  68394.9
 22.1843  79229.1
 22.2243  94475.4
 22.2643  115112
 22.3043  140339
 22.3443  165937
 22.3844  184903
 22.4244  191546
 22.4644  186246
 22.5044  174857
 22.5444  163426
 22.5844  153605
 22.6244  143064
 22.6644  129440
 22.7044  112981
 22.7444  96278.2
 22.7844  81716.1
 22.8244  70357.8
 22.8644  62151.4
 22.9045  56530.2
 22.9445  52878.2
 22.9845  50746.6
 23.0245  49780.4
 23.0645  49814
 23.1045  50819.6
 23.1445  52847.9
 23.1845  56145.2
 23.2245  61085.8
 23.2645  68395.6
 23.3045  79109.9
 23.3445  94170.3
 23.3846  113342
 23.4246  133701
 23.4646  149217
 23.5046  153931
 23.5446  146270
 23.5846  130180
 23.6246  111829
 23.6646  95968.8
 23.7046  84492.5
 23.7446  77473.4
 23.7846  74441.9
 23.8246  75047.4
 23.8646  79255.2
 23.9047  87556.3
 23.9447  100822
 23.9847  119623
 24.0247  142665
 24.0647  165134
 24.1047  179416
 24.1447  179417
 24.1847  164956
 24.2247  141650
 24.2647  116732
 24.3047  95074.9
 24.3447  78179.1
 24.3847  65640.7
 24.4248  56579.2
 24.4648  50101.3
 24.5048  45388.6
 24.5448  41945.3
 24.5848  39395.3
 24.6248  37518
 24.6648  36133.3
 24.7048  35117.9
 24.7448  34407.4
 24.7848  33965.8
 24.8248  33777.5
 24.8648  33862.2
 24.9048  34216.4
 24.9449  34906.9
 24.9849  35891.7
 25.0249  37141.2
 25.0649  38463.1
 25.1049  39541.8
 25.1449  40098.8
 25.1849  40040.4
 25.2249  39532.2
 25.2649  38986.6
 25.3049  38738.1
 25.3449  38965.5
 25.3849  39806.3
 25.4249  41324.4
 25.465  43687.5
 25.505  47132
 25.545  51956.9
 25.585  58449.4
 25.625  66586.5
 25.665  75802.4
 25.705  84994.4
 25.745  93059.4
 25.785  99827.9
 25.825  105735
 25.865  110537
 25.905  112571
 25.945  109692
 25.9851  101508
 26.0251  90009.1
 26.0651  77862.1
 26.1051  67195.9
 26.1451  58842.1
 26.1851  52737.2
 26.2251  48493.4
 26.2651  45769.5
 26.3051  44223.3
 26.3451  43699.6
 26.3851  44091.9
 26.4251  45441.3
 26.4651  47880.1
 26.5052  51589.4
 26.5452  56685.5
 26.5852  62935.5
 26.6252  69353
 26.6652  74246.9
 26.7052  76035.1
 26.7452  74273.2
 26.7852  69919.8
 26.8252  64677.8
 26.8652  60057.4
 26.9052  56861.4
 26.9452  55392.3
 26.9853  55796.6
 27.0253  58195.4
 27.0653  62871.1
 27.1053  70090.8
 27.1453  79623.3
 27.1853  90241.4
 27.2253  99479.5
 27.2653  104829
 27.3053  105270
 27.3453  101795
 27.3853  96166.8
 27.4253  89499.6
 27.4653  82086
 27.5054  74050.4
 27.5454  65937.8
 27.5854  58585.4
 27.6254  52533.7
 27.6654  47903.8
 27.7054  44544.3
 27.7454  42215.5
 27.7854  40769.4
 27.8254  40035.3
 27.8654  39902.9
 27.9054  40427
 27.9454  41615.2
 27.9854  43537.1
 28.0255  46232
 28.0655  49503
 28.1055  52836.8
 28.1455  55425
 28.1855  56585.9
 28.2255  56205
 28.2655  54837.9
 28.3055  53352.4
 28.3455  52513.2
 28.3855  52785
 28.4255  54436.4
 28.4655  57734.9
 28.5055  62989.3
 28.5456  70407.3
 28.5856  79924.9
 28.6256  90657.8
 28.6656  100618
 28.7056  107652
 28.7456  110605
 28.7856  109799
 28.8256  106262
 28.8656  100686
 28.9056  93249.7
 28.9456  84280.9
 28.9856  74708.4
 29.0256  65666.9
 29.0657  57970.2
 29.1057  51867.5
 29.1457  47215.6
 29.1857  43807
 29.2257  41382.8
 29.2657  39827.6
 29.3057  39012.7
 29.3457  38935.2
 29.3857  39572.6
 29.4257  40989.8
 29.4657  43149.7
 29.5057  45645.5
 29.5458  47759.3
 29.5858  48752.7
 29.6258  48248.6
 29.6658  46587.7
 29.7058  44502.7
 29.7458  42695
 29.7858  41612.8
 29.8258  41420.8
 29.8658  42207.5
 29.9058  44008.3
 29.9458  46711.9
 29.9858  49923.9
 30.0258  52971.2
 30.0659  54918.5
 30.1059  55060.1
 30.1459  53234.4
 30.1859  49944.5
 30.2259  46009.3
 30.2659  42232.4
 30.3059  39001.6
 30.3459  36424
 30.3859  34462.8
 30.4259  33035.2
 30.4659  32055.9
 30.5059  31446.8
 30.5459  31181.9
 30.586  31174.5
 30.626  31473.6
 30.666  32122.1
 30.706  33131.3
 30.746  34560.5
 30.786  36459.7
 30.826  38705.7
 30.866  40998.1
 30.906  42865.5
 30.946  43883.6
 30.986  43997.4
 31.026  43535.1
 31.066  43075
 31.1061  43069.8
 31.1461  43843.1
 31.1861  45670.4
 31.2261  48707.2
 31.2661  53046
 31.3061  58564.7
 31.3461  64651
 31.3861  70105.7
 31.4261  73594.8
 31.4661  74461.2
 31.5061  72878.2
 31.5461  69600.6
 31.5861  65379.6
 31.6262  60739.7
 31.6662  56044.1
 31.7062  51696.2
 31.7462  48007.9
 31.7862  45145.9
 31.8262  43179.8
 31.8662  42070.1
 31.9062  41761.8
 31.9462  42213.1
 31.9862  43496.2
 32.0262  45714
 32.0662  48871.4
 32.1062  52782.3
 32.1463  56994.1
 32.1863  60589.4
 32.2263  62656.3
 32.2663  62613.3
 32.3063  60710.9
 32.3463  57856
 32.3863  55015
 32.4263  52915.4
 32.4663  51972.3
 32.5063  52397.8
 32.5463  54205.2
 32.5863  57208.4
 32.6264  60833.6
 32.6664  64183.3
 32.7064  66250.1
 32.7464  66461.5
 32.7864  64858.6
 32.8264  61831
 32.8664  57952.3
 32.9064  53590.1
 32.9464  49176.8
 32.9864  45020.8
 33.0264  41345.5
 33.0664  38299
 33.1064  35874.3
 33.1465  33995.2
 33.1865  32539.3
 33.2265  31428.4
 33.2665  30596.1
 33.3065  30032.9
 33.3465  29665.9
 33.3865  29463.2
 33.4265  29429.9
 33.4665  29556.4
 33.5065  29873.8
 33.5465  30413.8
 33.5865  31130.8
 33.6265  32100.6
 33.6666  33423.4
 33.7066  35158
 33.7466  37445
 33.7866  40321.6
 33.8266  43754.9
 33.8666  47652.1
 33.9066  51622.4
 33.9466  55236.9
 33.9866  58097.8
 34.0266  59904.5
 34.0666  60356.5
 34.1066  59211.6
 34.1466  56546.2
 34.1867  52833.2
 34.2267  48763.4
 34.2667  44985.5
 34.3067  41821.1
 34.3467  39402.7
 34.3867  37721.9
 34.4267  36727.4
 34.4667  36358.2
 34.5067  36615.8
 34.5467  37341.5
 34.5867  38408.8
 34.6267  39586.3
 34.6667  40473.5
 34.7068  40746.8
 34.7468  40286.3
 34.7868  39282.8
 34.8268  38052.2
 34.8668  36958.6
 34.9068  36199.7
 34.9468  35958.2
 34.9868  36236.7
 35.0268  36927.9
 35.0668  37751.8
 35.1068  38411
 35.1468  38512.3
 35.1868  37884.3
 35.2269  36570.3
 35.2669  34864.8
 35.3069  33143.7
 35.3469  31583.2
 35.3869  30302.1
 35.4269  29306.9
 35.4669  28600.7
 35.5069  28114.5
 35.5469  27829.1
 35.5869  27762.5
 35.6269  27868.3
 35.6669  28156.2
 35.7069  28626.5
 35.747  29268.2
 35.787  30081
 35.827  30988.2
 35.867  31931
 35.907  32894.8
 35.947  33883.1
 35.987  35028.6
 36.027  36446.5
 36.067  38369.3
 36.107  40922.2
 36.147  44127.1
 36.187  47864.3
 36.2271  51939.4
 36.2671  55663.7
 36.3071  58355.7
 36.3471  59567
 36.3871  59164.1
 36.4271  57355.6
 36.4671  54618.7
 36.5071  51308.8
 36.5471  47815.2
 36.5871  44522.9
 36.6271  41670.3
 36.6671  39388.3
 36.7071  37681.5
 36.7471  36515.1
 36.7872  35909.8
 36.8272  35817.2
 36.8672  36177.6
 36.9072  36955.5
 36.9472  37892.6
 36.9872  38812
 37.0272  39380.6
 37.0672  39470.5
 37.1072  39159.6
 37.1472  38716.6
 37.1872  38430.5
 37.2272  38502.4
 37.2672  39112.3
 37.3073  40265.2
 37.3473  41857.7
 37.3873  43655.1
 37.4273  45229.2
 37.4673  46243.7
 37.5073  46468.9
 37.5473  45820.4
 37.5873  44495.9
 37.6273  42649.2
 37.6673  40467.7
 37.7073  38230.2
 37.7473  36136.4
 37.7874  34384.4
 37.8274  32988.9
 37.8674  31953.2
 37.9074  31279.7
 37.9474  30938.7
 37.9874  30912.5
 38.0274  31165.7
 38.0674  31499.4
 38.1074  31861.8
 38.1474  32101.7
 38.1874  32160.8
 38.2274  32023.7
 38.2674  31874.5
 38.3075  31863.2
 38.3475  32098.9
 38.3875  32618
 38.4275  33381.4
 38.4675  34290
 38.5075  35190.7
 38.5475  35815.1
 38.5875  35977
 38.6275  35694.6
 38.6675  35018.8
 38.7075  34114.9
 38.7475  33226
 38.7875  32133
 38.8276  31317.5
 38.8676  30722.6
 38.9076  30377.9
 38.9476  30310
 38.9876  30543.9
 39.0276  31090.9
 39.0676  31939
 39.1076  33025.8
 39.1476  34214.5
 39.1876  35282.8
 39.2276  36015.1
 39.2676  36297.1
 39.3076  36150.9
 39.3477  35772.1
 39.3877  35432.5
 39.4277  35336.9
 39.4677  35677.5
 39.5077  36360.7
 39.5477  37246
 39.5877  38027.3
 39.6277  38366.3
 39.6677  37983.8
 39.7077  36927.8
 39.7477  35382.8
 39.7877  33642.8
 39.8278  31975.7
 39.8678  30512.9
 39.9078  29302.7
 39.9478  28392.3
 39.9878  27687.9
 40.0278  27172.9
 40.0678  26936.3
 40.1078  26794.1
 40.1478  26887.1
 40.1878  27012
 40.2278  27239.3
 40.2678  27480.2
 40.3078  27680
 40.3479  27829.2
 40.3879  27974.8
 40.4279  28179.1
 40.4679  28521.1
 40.5079  29021.9
 40.5479  29755.2
 40.5879  30746.7
 40.6279  31949.4
 40.6679  33331.7
 40.7079  34723.9
 40.7479  35909.9
 40.7879  36703
 40.8279  36947.1
 40.868  36560.7
 40.908  35677.2
 40.948  34539.4
 40.988  33331.4
 41.028  32257.7
 41.068  31414.8
 41.108  30925.3
 41.148  30717.9
 41.188  30788.9
 41.228  31092.4
 41.268  31558
 41.308  32092
 41.348  32542.9
 41.3881  32859.8
 41.4281  33067.9
 41.4681  33282.7
 41.5081  33644.7
 41.5481  34254.1
 41.5881  35147.9
 41.6281  36189
 41.6681  37261.3
 41.7081  38091.4
 41.7481  38416.4
 41.7881  38170.3
 41.8281  37363.2
 41.8681  36141
 41.9082  34700.7
 41.9482  33260.3
 41.9882  31962
 42.0282  30851.3
 42.0682  29944.2
 42.1082  29290.4
 42.1482  28823
 42.1882  28588.5
 42.2282  28520.9
 42.2682  28661.9
 42.3082  28850.8
 42.3482  29144.7
 42.3882  29490.8
 42.4283  29888.1
 42.4683  30385.1
 42.5083  31076.1
 42.5483  31981.8
 42.5883  33144.1
 42.6283  34506.2
 42.6683  35966.1
 42.7083  37330.5
 42.7483  38333
 42.7883  38825.5
 42.8283  38723.8
 42.8683  38035.2
 42.9083  36924.7
 42.9484  35480
 42.9884  33948
 43.0284  32442.3
 43.0684  31151.5
 43.1084  30105.3
 43.1484  29314.8
 43.1884  28753.4
 43.2284  28412.8
 43.2684  28239.6
 43.3084  28131.5
 43.3484  28026.7
 43.3884  27860
 43.4285  27559.7
 43.4685  27249.6
 43.5085  26929.8
 43.5485  26642
 43.5885  26495.3
 43.6285  26435.4
 43.6685  26388.4
 43.7085  26327.7
 43.7485  26185
 43.7885  25908.8
 43.8285  25498.1
 43.8685  25039.5
 43.9085  24547.5
 43.9486  24105.1
 43.9886  23734
 44.0286  23471.4
 44.0686  23252.5
 44.1086  23110.2
 44.1486  23093.8
 44.1886  23136.7
 44.2286  23279.3
 44.2686  23502.2
 44.3086  23791.9
 44.3486  24134.3
 44.3886  24501.3
 44.4286  24946.1
 44.4687  25488
 44.5087  26142.1
 44.5487  26964.2
 44.5887  27898.5
 44.6287  28913.1
 44.6687  29888
 44.7087  30696.5
 44.7487  31251.6
 44.7887  31436
 44.8287  31296.5
 44.8687  30891.5
 44.9087  30323.4
 44.9487  29674.8
 44.9888  29081.8
 45.0288  28594.1
 45.0688  28309.3
 45.1088  28186
 45.1488  28285.7
 45.1888  28563.7
 45.2288  28953.9
 45.2688  29407.3
 45.3088  29806.3
 45.3488  30047.6
 45.3888  30117.8
 45.4288  30055.7
 45.4688  30011.1
 45.5089  29999.8
 45.5489  30180.6
 45.5889  30513.5
 45.6289  30865.7
 45.6689  31087.8
 45.7089  31172.2
 45.7489  31008.4
 45.7889  30571.2
 45.8289  29950.1
 45.8689  29188
 45.9089  28383.5
 45.9489  27646
 45.9889  26978.3
 46.029  26407.3
 46.069  25983.2
 46.109  25683.9
 46.149  25517
 46.189  25435.2
 46.229  25476.9
 46.269  25540.7
 46.309  25633.6
 46.349  25795.9
 46.389  26023.8
 46.429  26331.5
 46.469  26776.9
 46.509  27363.1
 46.5491  27999.3
 46.5891  28632.5
 46.6291  29197
 46.6691  29601.2
 46.7091  29758.9
 46.7491  29642.3
 46.7891  29350.4
 46.8291  28883.6
 46.8691  28401.4
 46.9091  27919.2
 46.9491  27576.6
 46.9891  27363
 47.0292  27290.5
 47.0692  27395.2
 47.1092  27559.2
 47.1492  27768.3
 47.1892  27968.4
 47.2292  28085.8
 47.2692  28057
 47.3092  27938.9
 47.3492  27756.3
 47.3892  27590.9
 47.4292  27531.8
 47.4692  27547
 47.5092  27520.4
 47.5493  27405.3
 47.5893  27242.8
 47.6293  26880.3
 47.6693  26413
 47.7093  25861.2
 47.7493  25334.6
 47.7893  24816.6
 47.8293  24387.8
 47.8693  24085.9
 47.9093  23894.7
 47.9493  23846
 47.9893  23863.6
 48.0293  23967
 48.0694  24140.9
 48.1094  24222.1
 48.1494  24394.4
 48.1894  24785.5
 48.2294  25057.1
 48.2694  25348
 48.3094  25687.3
 48.3494  26075.9
 48.3894  26545.7
 48.4294  26981.4
 48.4694  27261.8
 48.5094  27397.3
 48.5494  27123.4
 48.5895  26819.3
 48.6295  26320.9
 48.6695  25676.5
 48.7095  24999.9
 48.7495  24308
 48.7895  23596.6
 48.8295  23154.3
 48.8695  22863.6
 48.9095  22648.5
 48.9495  22428.2
 48.9895  22317.7
 49.0295  22175
 49.0695  22082
 49.1096  22130.4
 49.1496  22108.8
 49.1896  22155.7
 49.2296  22257.9
 49.2696  22409.3
 49.3096  22616.4
 49.3496  22755.4
 49.3896  22904
 49.4296  22972.4
 49.4696  22919.4
 49.5096  22754.2
 49.5496  22557.3
 49.5896  22319.5
 49.6297  22184.6
 49.6697  21959.9
 49.7097  21700.4
 49.7497  21492.8
 49.7897  21358.1
 49.8297  21203.8
 49.8697  21190.6
 49.9097  21273
 49.9497  21354
 49.9897  21578.4
 50.0297  21834.6
 50.0697  22146.3
 50.1097  22606.3
 50.1498  23101.3
 50.1898  23653.8
 50.2298  24218.6
 50.2698  24769.7
 50.3098  25164.4
 50.3498  25435.5
 50.3898  25565.4
 50.4298  25368.6
 50.4698  25236.7
 50.5098  24928.3
 50.5498  24665.5
 50.5898  24451.2
 50.6299  24363.3
 50.6699  24337.5
 50.7099  24425.3
 50.7499  24512.1
 50.7899  24752.1
 50.8299  24930.9
 50.8699  25060.1
 50.9099  25188.8
 50.9499  25273.8
 50.9899  25272.4
 51.0299  25456.4
 51.0699  25583.8
 51.1099  25661.6
 51.15  25752.8
 51.19  25675.2
 51.23  25331.3
 51.27  24965
 51.31  24485.3
 51.35  23894.6
 51.39  23316.6
 51.43  22810.1
 51.47  22451.1
 51.51  22119.1
 51.55  21848
 51.59  21660.2
 51.63  21530.4
 51.6701  21508.6
 51.7101  21534.2
 51.7501  21575.8
 51.7901  21741
 51.8301  21901.1
 51.8701  22212.1
 51.9101  22549.4
 51.9501  22844.6
 51.9901  23311
 52.0301  23675.8
 52.0701  23930.7
 52.1101  24089.4
 52.1501  24019.6
 52.1902  23913.1
 52.2302  23752.9
 52.2702  23405.3
 52.3102  23143.4
 52.3502  22950.2
 52.3902  22781
 52.4302  22615.6
 52.4702  22570.7
 52.5102  22526.7
 52.5502  22581.4
 52.5902  22566.9
 52.6302  22443.3
 52.6703  22274.2
 52.7103  22047.5
 52.7503  21946.6
 52.7903  21763.5
 52.8303  21718.9
 52.8703  21588
 52.9103  21511.8
 52.9503  21408.7
 52.9903  21281.1
 53.0303  21119.6
 53.0703  20983.1
 53.1103  20762.9
 53.1503  20711
 53.1904  20545.2
 53.2304  20474.6
 53.2704  20494.5
 53.3104  20586.2
 53.3504  20666.1
 53.3904  20759.4
 53.4304  20891.8
 53.4704  21082.7
 53.5104  21229.3
 53.5504  21448.7
 53.5904  21602.7
 53.6304  21863.4
 53.6704  22082.1
 53.7105  22408.2
 53.7505  22603.7
 53.7905  22668.4
 53.8305  22590.4
 53.8705  22556
 53.9105  22283
 53.9505  21998.9
 53.9905  21675
 54.0305  21306.9
 54.0705  20999.8
 54.1105  20788.2
 54.1505  20656.6
 54.1905  20467.5
 54.2306  20405.2
 54.2706  20261.7
 54.3106  20222
 54.3506  20124.4
 54.3906  20055.8
 54.4306  19931.9
 54.4706  19823.1
 54.5106  19740.6
 54.5506  19703.6
 54.5906  19650.9
 54.6306  19616.2
 54.6706  19478.3
 54.7106  19352.1
 54.7507  19257.7
 54.7907  19084.6
 54.8307  18950.2
 54.8707  18801.7
 54.9107  18827.2
 54.9507  18880.7
 54.9907  18890.3
 55.0307  18895.5
 55.0707  18979.1
 55.1107  19009.1
 55.1507  19099
 55.1907  19277.2
 55.2307  19396.7
 55.2708  19424.1
 55.3108  19747.2
 55.3508  19948.1
 55.3908  20086.7
 55.4308  20215.4
 55.4708  20375.5
 55.5108  20390.9
 55.5508  20458.4
 55.5908  20427.1
 55.6308  20388.5
 55.6708  20338
 55.7108  20291
 55.7508  20347.4
 55.7909  20402.9
 55.8309  20477.9
 55.8709  20690.6
 55.9109  20823.3
 55.9509  20953.1
 55.9909  21116.5
 56.0309  21270
 56.0709  21296.8
 56.1109  21329.2
 56.1509  21515.1
 56.1909  21547.1
 56.2309  21685
 56.2709  21579.6
 56.311  21511
 56.351  21271
 56.391  21001.2
 56.431  20660.9
 56.471  20266.4
 56.511  19936.7
 56.551  19564.1
 56.591  19282.1
 56.631  18979.6
 56.671  18871.5
 56.711  18672
 56.751  18496.6
 56.791  18420.8
 56.8311  18275.7
 56.8711  18095.3
 56.9111  17991.9
 56.9511  18155
 56.9911  18289.6
 57.0311  18230.3
 57.0711  18204.9
 57.1111  18155.1
 57.1511  18054.4
 57.1911  17949.2
 57.2311  17668.4
 57.2711  17515.8
 57.3112  17455.7
 57.3512  17011.2
 57.3912  16611.3
 57.4312  16392.5
 57.4712  16298.2
 57.5112  15951.4
 57.5512  15935.7
 57.5912  15404.6
 57.6312  14911.3
 57.6712  14478.4
 57.7112  14777.3
 57.7512  14794.9
 57.7912  14634.2
 57.8313  14491.9
 57.8713  14576
 57.9113  14717.9
 57.9513  14815.4
 57.9913  15003.6
 58.0313  15079.4
 58.0713  14792.8
 58.1113  14084.5
 58.1513  14032.7
 58.1913  13188.7
 58.2313  12647.6
 58.2713  11928.6
 58.3113  10331.5
 58.3514  8397.38
 58.3914  7707.34
 58.4314  6804.96
 58.4714  6902.82
 58.5114  4920.11
 58.5514  3428.08
 58.5914  1700.92