File: pdfgetxn3-examples/Pt/series/Pt_bulk_ramp03-00904.chi
Pt_bulk_ramp03-00904.tif: 2-theta Scan
2-Theta Angle (Degrees)

       1465
 0.0200039  0.0000000E+00
 0.0600117  0.0000000E+00
 0.100019  0.0000000E+00
 0.140027  0.0000000E+00
 0.180035  0.0000000E+00
 0.220043  0.0000000E+00
 0.260051  0.0000000E+00
 0.300058  0.0000000E+00
 0.340066  0.0000000E+00
 0.380074  0.0000000E+00
 0.420082  0.0000000E+00
 0.46009  0.0000000E+00
 0.500097  0.0000000E+00
 0.540105  0.0000000E+00
 0.580113  0.0000000E+00
 0.620121  0.0000000E+00
 0.660128  0.0000000E+00
 0.700136  0.0000000E+00
 0.740144  16408.6
 0.780152  18982.2
 0.82016  29795.7
 0.860167  49110.9
 0.900175  75158.3
 0.940183  89300.9
 0.980191  89579.2
 1.0202  84510.5
 1.06021  78282.1
 1.10021  73813.8
 1.14022  69365.5
 1.18023  65747
 1.22024  62963.1
 1.26025  60341.3
 1.30025  58263.4
 1.34026  56563.1
 1.38027  55018.2
 1.42028  53895.4
 1.46028  53001.5
 1.50029  52132.2
 1.5403  51356.2
 1.58031  50569.9
 1.62032  49904.1
 1.66032  49486.4
 1.70033  49419.9
 1.74034  49746.4
 1.78035  50104.6
 1.82035  49777.9
 1.86036  48768.3
 1.90037  47739.7
 1.94038  47279.2
 1.98039  47280.2
 2.02039  47565.5
 2.0604  47820.8
 2.10041  47800.7
 2.14042  47574.6
 2.18042  47336.2
 2.22043  47322.8
 2.26044  47463.4
 2.30045  47572
 2.34046  47799.2
 2.38046  47996.5
 2.42047  48205.5
 2.46048  48475.2
 2.50049  48832.9
 2.54049  49335.3
 2.5805  49703.8
 2.62051  49877.2
 2.66052  49666.6
 2.70053  49000
 2.74053  48118.6
 2.78054  47184.4
 2.82055  46395
 2.86056  45816.8
 2.90056  45345
 2.94057  44766.1
 2.98058  43844.5
 3.02059  42798.1
 3.0606  41881.5
 3.1006  41213.5
 3.14061  40728.5
 3.18062  40286.4
 3.22063  39935.4
 3.26063  39710.7
 3.30064  39618.1
 3.34065  39726.9
 3.38066  40041.6
 3.42067  40397
 3.46067  40552.6
 3.50068  40441.9
 3.54069  40308.8
 3.5807  40294.1
 3.6207  40319.1
 3.66071  40320.5
 3.70072  40214.8
 3.74073  40067.8
 3.78074  39871.6
 3.82074  39647.9
 3.86075  39440.2
 3.90076  39323.6
 3.94077  39281.6
 3.98077  39249
 4.02078  39327.4
 4.06079  39562.5
 4.1008  39850.1
 4.14081  40160.7
 4.18081  40482.6
 4.22082  40850.9
 4.26083  41287
 4.30084  41837.8
 4.34084  42556.6
 4.38085  43456.8
 4.42086  44524.5
 4.46087  45841.7
 4.50088  47387.8
 4.54088  49086.6
 4.58089  51002.2
 4.6209  53264.5
 4.66091  55887.1
 4.70091  58950.6
 4.74092  62666.9
 4.78093  67217.6
 4.82094  72876.6
 4.86095  79882.4
 4.90095  88704.9
 4.94096  100109
 4.98097  114892
 5.02098  135121
 5.06098  163318
 5.10099  203565
 5.141  267976
 5.18101  380802
 5.22102  602999
 5.26102  1.09105e+06
 5.30103  2.01135e+06
 5.34104  3.1458e+06
 5.38105  3.67474e+06
 5.42105  3.67696e+06
 5.46106  3.12961e+06
 5.50107  1.99773e+06
 5.54108  1.04687e+06
 5.58109  562084
 5.62109  347413
 5.6611  245665
 5.70111  195634
 5.74112  169349
 5.78113  156217
 5.82113  152404
 5.86114  155838
 5.90115  167609
 5.94116  190287
 5.98116  230745
 6.02117  305560
 6.06118  445940
 6.10119  715618
 6.14119  1.16669e+06
 6.1812  1.70409e+06
 6.22121  2.0614e+06
 6.26122  1.96482e+06
 6.30123  1.48557e+06
 6.34123  922454
 6.38124  526786
 6.42125  304290
 6.46126  193415
 6.50127  135965
 6.54127  103802
 6.58128  84788.5
 6.62129  72413
 6.6613  63913.7
 6.7013  57882.6
 6.74131  53356.9
 6.78132  49915.3
 6.82133  47207.1
 6.86134  44941.7
 6.90134  43037.6
 6.94135  41404.8
 6.98136  39905.4
 7.02137  38707.7
 7.06137  37751.8
 7.10138  36894.5
 7.14139  36174.6
 7.1814  35566.2
 7.2214  35034.7
 7.26141  34608.6
 7.30142  34250.4
 7.34143  33997.5
 7.38144  33818.5
 7.42144  33663.7
 7.46145  33568.5
 7.50146  33499.9
 7.54147  33463.2
 7.58148  33481.8
 7.62148  33524.9
 7.66149  33648.5
 7.7015  33895.5
 7.74151  34236.5
 7.78151  34588.9
 7.82152  35019.7
 7.86153  35536.9
 7.90154  36158.9
 7.94155  36937.7
 7.98155  37819.3
 8.02156  38836.1
 8.06157  40004.2
 8.10158  41398.7
 8.14158  43063.5
 8.18159  45043.8
 8.2216  47424.2
 8.26161  50371
 8.30162  54129
 8.34162  58885.6
 8.38163  65066.3
 8.42164  73268.1
 8.46165  84362.8
 8.50165  100070
 8.54166  123746
 8.58167  161569
 8.62168  227920
 8.66169  352418
 8.70169  577144
 8.7417  930372
 8.78171  1.31033e+06
 8.82172  1.51459e+06
 8.86172  1.39226e+06
 8.90173  1.03816e+06
 8.94174  658145
 8.98175  391001
 9.02176  240103
 9.06176  160181
 9.10177  118113
 9.14178  94564.4
 9.18179  80349.9
 9.22179  71496.5
 9.2618  65658.8
 9.30181  61715.6
 9.34182  59124.5
 9.38183  57408.8
 9.42183  56358.2
 9.46184  55889
 9.50185  55851.5
 9.54186  56245.5
 9.58186  57046.3
 9.62187  58296.9
 9.66188  60092.5
 9.70189  62470.2
 9.7419  65652.1
 9.7819  69733.7
 9.82191  74900
 9.86192  81568.8
 9.90193  90166.6
 9.94193  101825
 9.98194  117920
 10.022  140352
 10.062  173511
 10.102  225788
 10.142  312736
 10.182  465780
 10.222  729755
 10.262  1.11618e+06
 10.302  1.5358e+06
 10.342  1.76673e+06
 10.382  1.66637e+06
 10.422  1.29376e+06
 10.462  873343
 10.502  554820
 10.5421  366592
 10.5821  273050
 10.6221  240910
 10.6621  260019
 10.7021  331597
 10.7421  446781
 10.7821  552376
 10.8221  576189
 10.8621  493244
 10.9021  355715
 10.9421  232270
 10.9821  150979
 11.0221  105708
 11.0622  80911.6
 11.1022  66813.7
 11.1422  58255
 11.1822  52558.2
 11.2222  48539.1
 11.2622  45621.3
 11.3022  43368.6
 11.3422  41589.7
 11.3822  40187.3
 11.4222  39052.6
 11.4622  38138
 11.5022  37367.7
 11.5422  36658.3
 11.5823  36063.2
 11.6223  35621.1
 11.6623  35256.1
 11.7023  34982
 11.7423  34840.9
 11.7823  34829.4
 11.8223  34970.7
 11.8623  35248.9
 11.9023  35695.4
 11.9423  36486.6
 11.9823  37765.4
 12.0223  39801.9
 12.0623  41197.4
 12.1024  42970.4
 12.1424  45675.2
 12.1824  50184.3
 12.2224  56884.2
 12.2624  67235
 12.3024  83501.7
 12.3424  109200
 12.3824  146123
 12.4224  188722
 12.4624  221377
 12.5024  225954
 12.5424  200045
 12.5824  157837
 12.6225  117839
 12.6625  88855.1
 12.7025  70468.3
 12.7425  59605.2
 12.7825  53349.8
 12.8225  49828.2
 12.8625  48048
 12.9025  47424.7
 12.9425  47617.4
 12.9825  48487.1
 13.0225  49959.4
 13.0625  52072.1
 13.1026  54956.6
 13.1426  58755.1
 13.1826  63755.9
 13.2226  70355.8
 13.2626  79249.1
 13.3026  91607
 13.3426  109340
 13.3826  136422
 13.4226  180139
 13.4626  252399
 13.5026  365797
 13.5426  515185
 13.5826  654092
 13.6227  715243
 13.6627  666817
 13.7027  549697
 13.7427  433831
 13.7827  367876
 13.8227  367098
 13.8627  428024
 13.9027  527019
 13.9427  611417
 13.9827  624201
 14.0227  548764
 14.0627  424231
 14.1027  301670
 14.1428  210094
 14.1828  150297
 14.2228  113250
 14.2628  90545.6
 14.3028  76285.9
 14.3428  66965.8
 14.3828  60686.6
 14.4228  56340
 14.4628  53248.6
 14.5028  51025.6
 14.5428  49490.1
 14.5828  48459.6
 14.6228  47884
 14.6629  47739.4
 14.7029  48023.4
 14.7429  48709.3
 14.7829  49918.8
 14.8229  51699.7
 14.8629  54252.1
 14.9029  57818.2
 14.9429  62764.1
 14.9829  69679.2
 15.0229  79666.2
 15.0629  94611.6
 15.1029  118027
 15.1429  155485
 15.183  214039
 15.223  293814
 15.263  376573
 15.303  426134
 15.343  414641
 15.383  349535
 15.423  264628
 15.463  190566
 15.503  138340
 15.543  105207
 15.583  85229.8
 15.623  73420.1
 15.663  66598.9
 15.7031  62977.1
 15.7431  61627.9
 15.7831  62063.6
 15.8231  64208.5
 15.8631  68280
 15.9031  74690
 15.9431  84329.8
 15.9831  98800.7
 16.0231  120967
 16.0631  155408
 16.1031  207669
 16.1431  279833
 16.1831  359985
 16.2232  418636
 16.2632  425869
 16.3032  377074
 16.3432  297463
 16.3832  218697
 16.4232  157602
 16.4632  116004
 16.5032  89175.5
 16.5432  71958.5
 16.5832  60782.6
 16.6232  53295
 16.6632  48136.5
 16.7033  44467.9
 16.7433  41833.8
 16.7833  39891
 16.8233  38426.4
 16.8633  37351.8
 16.9033  36568.9
 16.9433  35983.4
 16.9833  35621.2
 17.0233  35435
 17.0633  35388.8
 17.1033  35535.3
 17.1433  35837.3
 17.1833  36317.1
 17.2234  37063.1
 17.2634  38109
 17.3034  39529.8
 17.3434  41448
 17.3834  44073.7
 17.4234  47757.4
 17.4634  53107.6
 17.5034  61202.7
 17.5434  73496.1
 17.5834  91188.6
 17.6234  112972
 17.6634  132855
 17.7034  142465
 17.7435  137323
 17.7835  120849
 17.8235  100920
 17.8635  83905.3
 17.9035  72080.4
 17.9435  65051.6
 17.9835  61671.1
 18.0235  60978.9
 18.0635  62454.4
 18.1035  65791.8
 18.1435  71140.3
 18.1835  78971.3
 18.2235  90256.3
 18.2636  106623
 18.3036  130995
 18.3436  167642
 18.3836  221037
 18.4236  290827
 18.4636  363720
 18.5036  414800
 18.5436  423954
 18.5836  394472
 18.6236  350817
 18.6636  318844
 18.7036  307969
 18.7436  308439
 18.7837  301214
 18.8237  273968
 18.8637  229755
 18.9037  181607
 18.9437  140415
 18.9837  109970
 19.0237  89046.8
 19.0637  75044.9
 19.1037  65764.8
 19.1437  59495.7
 19.1837  55250
 19.2237  52401.3
 19.2637  50567.5
 19.3038  49542.3
 19.3438  49289.9
 19.3838  49737.2
 19.4238  50964
 19.4638  53172.2
 19.5038  56616.5
 19.5438  61788.3
 19.5838  69500
 19.6238  80761.5
 19.6638  96528.4
 19.7038  116480
 19.7438  137150
 19.7839  151834
 19.8239  154311
 19.8639  143357
 19.9039  124037
 19.9439  103288
 19.9839  85747.3
 20.0239  72918.2
 20.0639  64319.7
 20.1039  59014.7
 20.1439  56320
 20.1839  55615.4
 20.2239  56666.8
 20.2639  59626.3
 20.304  64909
 20.344  73382.3
 20.384  86357.3
 20.424  105084
 20.464  128438
 20.504  151559
 20.544  167248
 20.584  171292
 20.624  166714
 20.664  160999
 20.704  159074
 20.744  159289
 20.784  155864
 20.8241  144324
 20.8641  125624
 20.9041  104566
 20.9441  85533.3
 20.9841  70663.1
 21.0241  59911.3
 21.0641  52377
 21.1041  47184.2
 21.1441  43598.2
 21.1841  41112.5
 21.2241  39422.4
 21.2641  38328.5
 21.3041  37690.7
 21.3442  37458.7
 21.3842  37608.2
 21.4242  38136.2
 21.4642  39165
 21.5042  40893.1
 21.5442  43677.7
 21.5842  47802.6
 21.6242  53264.9
 21.6642  59190.1
 21.7042  63657.7
 21.7442  64876.7
 21.7842  62648.3
 21.8242  58467.6
 21.8643  54299.6
 21.9043  51389.4
 21.9443  50180.3
 21.9843  50605.9
 22.0243  52546
 22.0643  56032.7
 22.1043  61305.7
 22.1443  68955.6
 22.1843  79844.7
 22.2243  95179.8
 22.2643  115966
 22.3043  141388
 22.3443  167109
 22.3844  186151
 22.4244  192802
 22.4644  187414
 22.5044  175934
 22.5444  164402
 22.5844  154535
 22.6244  143917
 22.6644  130192
 22.7044  113642
 22.7444  96834.1
 22.7844  82236
 22.8244  70847.3
 22.8644  62601.2
 22.9045  56962.8
 22.9445  53288.8
 22.9845  51147.4
 23.0245  50190.9
 23.0645  50221
 23.1045  51226.5
 23.1445  53287.1
 23.1845  56603.5
 23.2245  61584.3
 23.2645  68955.3
 23.3045  79761.1
 23.3445  94912.1
 23.3846  114186
 23.4246  134664
 23.4646  150216
 23.5046  154899
 23.5446  147123
 23.5846  130891
 23.6246  112449
 23.6646  96536.3
 23.7046  85050.3
 23.7446  78027.4
 23.7846  75001.1
 23.8246  75622.8
 23.8646  79844.1
 23.9047  88192.8
 23.9447  101567
 23.9847  120513
 24.0247  143669
 24.0647  166224
 24.1047  180545
 24.1447  180475
 24.1847  165878
 24.2247  142428
 24.2647  117382
 24.3047  95630.1
 24.3447  78628.1
 24.3847  66018.5
 24.4248  56925.6
 24.4648  50434.5
 24.5048  45717.4
 24.5448  42259.8
 24.5848  39696.4
 24.6248  37805
 24.6648  36415.2
 24.7048  35390.5
 24.7448  34678.6
 24.7848  34255.6
 24.8248  34078.7
 24.8648  34149.2
 24.9048  34504
 24.9449  35184.7
 24.9849  36188.8
 25.0249  37452.1
 25.0649  38771.9
 25.1049  39859.5
 25.1449  40402.9
 25.1849  40340.4
 25.2249  39854.3
 25.2649  39298.7
 25.3049  39058.6
 25.3449  39285.8
 25.3849  40117.2
 25.4249  41666.7
 25.465  44053
 25.505  47520.5
 25.545  52382.3
 25.585  58895.3
 25.625  67093.3
 25.665  76388.9
 25.705  85611.1
 25.745  93700.3
 25.785  100490
 25.825  106400
 25.865  111189
 25.905  113203
 25.945  110305
 25.9851  102032
 26.0251  90443
 26.0651  78265.9
 26.1051  67570.2
 26.1451  59195.3
 26.1851  53068.4
 26.2251  48824.2
 26.2651  46077.5
 26.3051  44527.3
 26.3451  44002.3
 26.3851  44417.8
 26.4251  45773.3
 26.4651  48215.9
 26.5052  51973.5
 26.5452  57117.3
 26.5852  63379.5
 26.6252  69806.7
 26.6652  74747.5
 26.7052  76543.2
 26.7452  74736.1
 26.7852  70371.5
 26.8252  65106.2
 26.8652  60451.1
 26.9052  57247.2
 26.9452  55782
 26.9853  56198.2
 27.0253  58611.1
 27.0653  63334.5
 27.1053  70627.4
 27.1453  80248.6
 27.1853  90883.6
 27.2253  100098
 27.2653  105453
 27.3053  105866
 27.3453  102358
 27.3853  96689.8
 27.4253  89986.2
 27.4653  82543.5
 27.5054  74470.6
 27.5454  66323.1
 27.5854  58965.3
 27.6254  52909.4
 27.6654  48247.3
 27.7054  44861.5
 27.7454  42521.1
 27.7854  41062.8
 27.8254  40327.7
 27.8654  40225.3
 27.9054  40755
 27.9454  41954.1
 27.9854  43910
 28.0255  46611.2
 28.0655  49872.7
 28.1055  53210
 28.1455  55786.7
 28.1855  56930.2
 28.2255  56528.1
 28.2655  55199.5
 28.3055  53759.9
 28.3455  52912.5
 28.3855  53164.3
 28.4255  54834.5
 28.4655  58184.8
 28.5055  63455.7
 28.5456  70925.1
 28.5856  80490.8
 28.6256  91250.6
 28.6656  101241
 28.7056  108250
 28.7456  111178
 28.7856  110382
 28.8256  106819
 28.8656  101190
 28.9056  93710.1
 28.9456  84715.8
 28.9856  75115.4
 29.0256  66057
 29.0657  58344.2
 29.1057  52200.3
 29.1457  47503.7
 29.1857  44073.6
 29.2257  41669.9
 29.2657  40110
 29.3057  39297.8
 29.3457  39208.8
 29.3857  39862.8
 29.4257  41302.8
 29.4657  43473.6
 29.5057  45966.4
 29.5458  48081.1
 29.5858  49064.7
 29.6258  48553.4
 29.6658  46899.8
 29.7058  44807.9
 29.7458  42993.4
 29.7858  41895.2
 29.8258  41705.7
 29.8658  42520.2
 29.9058  44322.1
 29.9458  47028.5
 29.9858  50256.2
 30.0258  53311.3
 30.0659  55262.2
 30.1059  55401.2
 30.1459  53556
 30.1859  50226.6
 30.2259  46284
 30.2659  42500.2
 30.3059  39263.9
 30.3459  36676.6
 30.3859  34700.8
 30.4259  33274.1
 30.4659  32308.7
 30.5059  31711.1
 30.5459  31429.1
 30.586  31420.5
 30.626  31729.3
 30.666  32376.1
 30.706  33378.7
 30.746  34821.8
 30.786  36716.7
 30.826  38969.7
 30.866  41267.9
 30.906  43131.4
 30.946  44160.5
 30.986  44287.5
 31.026  43836.4
 31.066  43364.7
 31.1061  43358.1
 31.1461  44127.5
 31.1861  45940.8
 31.2261  49000
 31.2661  53413.1
 31.3061  59000.8
 31.3461  65088.3
 31.3861  70551
 31.4261  74039.3
 31.4661  74872.8
 31.5061  73261
 31.5461  69996.4
 31.5861  65742
 31.6262  61057.8
 31.6662  56357
 31.7062  51983.5
 31.7462  48281.3
 31.7862  45438.4
 31.8262  43469.8
 31.8662  42352.3
 31.9062  42042.2
 31.9462  42501
 31.9862  43827.9
 32.0262  46049.4
 32.0662  49197.4
 32.1062  53123.5
 32.1463  57351
 32.1863  60984.1
 32.2263  63061
 32.2663  62994.6
 32.3063  61076
 32.3463  58165.4
 32.3863  55321.9
 32.4263  53242
 32.4663  52317.8
 32.5063  52736.6
 32.5463  54528.2
 32.5863  57540.2
 32.6264  61183.7
 32.6664  64541.2
 32.7064  66618.2
 32.7464  66837.5
 32.7864  65189.9
 32.8264  62120.6
 32.8664  58225.2
 32.9064  53876.8
 32.9464  49444.6
 32.9864  45272.6
 33.0264  41616.1
 33.0664  38595.3
 33.1064  36142
 33.1465  34215.5
 33.1865  32758.9
 33.2265  31659.7
 33.2665  30849.3
 33.3065  30267
 33.3465  29898
 33.3865  29682.3
 33.4265  29648
 33.4665  29802.7
 33.5065  30132.9
 33.5465  30647.3
 33.5865  31371.5
 33.6265  32339.8
 33.6666  33668.4
 33.7066  35410.2
 33.7466  37697.3
 33.7866  40585.6
 33.8266  44051.7
 33.8666  47964.1
 33.9066  51961.9
 33.9466  55578.5
 33.9866  58447.1
 34.0266  60214.5
 34.0666  60644.9
 34.1066  59515.7
 34.1466  56829.8
 34.1867  53079.9
 34.2267  48998.2
 34.2667  45208
 34.3067  42059.7
 34.3467  39648.2
 34.3867  37954.6
 34.4267  36960.6
 34.4667  36609.2
 34.5067  36838.4
 34.5467  37569.1
 34.5867  38637.9
 34.6267  39841.5
 34.6667  40725
 34.7068  40987.2
 34.7468  40496.2
 34.7868  39502.2
 34.8268  38262.8
 34.8668  37162.7
 34.9068  36431
 34.9468  36201.8
 34.9868  36484.1
 35.0268  37186.5
 35.0668  38038.7
 35.1068  38686.4
 35.1468  38751.9
 35.1868  38084.7
 35.2269  36747.8
 35.2669  35049.6
 35.3069  33311.9
 35.3469  31785
 35.3869  30512.2
 35.4269  29490.4
 35.4669  28765.8
 35.5069  28299.9
 35.5469  28035
 35.5869  27981.7
 35.6269  28067.6
 35.6669  28352.3
 35.7069  28818.8
 35.747  29475.8
 35.787  30316.1
 35.827  31210.5
 35.867  32170.4
 35.907  33127.8
 35.947  34106.2
 35.987  35221.6
 36.027  36683.6
 36.067  38634.1
 36.107  41170.7
 36.147  44395
 36.187  48167.3
 36.2271  52234.7
 36.2671  55952.8
 36.3071  58652.6
 36.3471  59864.7
 36.3871  59432.8
 36.4271  57618.6
 36.4671  54867.8
 36.5071  51566.2
 36.5471  48082.6
 36.5871  44768.4
 36.6271  41892.9
 36.6671  39599.1
 36.7071  37882.5
 36.7471  36731.2
 36.7872  36102.6
 36.8272  36024.2
 36.8672  36416.8
 36.9072  37200.2
 36.9472  38144.8
 36.9872  39044.3
 37.0272  39648.1
 37.0672  39723
 37.1072  39410.7
 37.1472  38926.7
 37.1872  38614.2
 37.2272  38699.5
 37.2672  39322.2
 37.3073  40525.8
 37.3473  42136.1
 37.3873  43905.4
 37.4273  45473.5
 37.4673  46454.6
 37.5073  46677.1
 37.5473  46033.9
 37.5873  44701.6
 37.6273  42851.7
 37.6673  40684
 37.7073  38436.8
 37.7473  36340.7
 37.7874  34589
 37.8274  33211.4
 37.8674  32167.3
 37.9074  31487.7
 37.9474  31154
 37.9874  31126.5
 38.0274  31363.5
 38.0674  31716.4
 38.1074  32066
 38.1474  32298.4
 38.1874  32342.7
 38.2274  32217
 38.2674  32071.9
 38.3075  32079.8
 38.3475  32279.3
 38.3875  32800.3
 38.4275  33597.2
 38.4675  34509.2
 38.5075  35385.4
 38.5475  35985.2
 38.5875  36174.5
 38.6275  35894.6
 38.6675  35216
 38.7075  34278.1
 38.7475  33362
 38.7875  32301.2
 38.8276  31494.1
 38.8676  30912.9
 38.9076  30577.9
 38.9476  30485.7
 38.9876  30719
 39.0276  31307.3
 39.0676  32154.2
 39.1076  33219.1
 39.1476  34427.9
 39.1876  35489.2
 39.2276  36221.2
 39.2676  36490.1
 39.3076  36340.7
 39.3477  35959.8
 39.3877  35631.2
 39.4277  35550.2
 39.4677  35883.2
 39.5077  36578.8
 39.5477  37465.2
 39.5877  38245.6
 39.6277  38564.8
 39.6677  38169.3
 39.7077  37126.9
 39.7477  35577.1
 39.7877  33821.9
 39.8278  32143.7
 39.8678  30680.6
 39.9078  29484.3
 39.9478  28554.7
 39.9878  27859.6
 40.0278  27339.5
 40.0678  27089.1
 40.1078  26910.8
 40.1478  27036.6
 40.1878  27181.5
 40.2278  27408.1
 40.2678  27658
 40.3078  27845.6
 40.3479  28013.8
 40.3879  28164.1
 40.4279  28359.1
 40.4679  28694.7
 40.5079  29223.6
 40.5479  29971.5
 40.5879  30946.1
 40.6279  32157
 40.6679  33511.5
 40.7079  34917.7
 40.7479  36101.7
 40.7879  36907.6
 40.8279  37136.9
 40.868  36768.9
 40.908  35865.3
 40.948  34685.3
 40.988  33482.6
 41.028  32439.5
 41.068  31636.1
 41.108  31119
 41.148  30882.6
 41.188  30943.2
 41.228  31244.9
 41.268  31738.9
 41.308  32297
 41.348  32728.5
 41.3881  33054.5
 41.4281  33255.1
 41.4681  33447.6
 41.5081  33830.3
 41.5481  34438.4
 41.5881  35341.9
 41.6281  36415.2
 41.6681  37462.5
 41.7081  38289.6
 41.7481  38611.4
 41.7881  38342.1
 41.8281  37495.6
 41.8681  36291.1
 41.9082  34870.9
 41.9482  33427
 41.9882  32127
 42.0282  31023.4
 42.0682  30131.8
 42.1082  29444.2
 42.1482  28976.5
 42.1882  28758.6
 42.2282  28690.9
 42.2682  28822.7
 42.3082  29039.8
 42.3482  29304.2
 42.3882  29623.5
 42.4283  30029.3
 42.4683  30558.7
 42.5083  31249.3
 42.5483  32153.2
 42.5883  33316.4
 42.6283  34683.3
 42.6683  36115.1
 42.7083  37455.6
 42.7483  38475.9
 42.7883  38977.7
 42.8283  38883.1
 42.8683  38179.5
 42.9083  37032.6
 42.9484  35618.9
 42.9884  34084.3
 43.0284  32606
 43.0684  31318.9
 43.1084  30250.1
 43.1484  29438.2
 43.1884  28897.3
 43.2284  28530
 43.2684  28358.4
 43.3084  28283.1
 43.3484  28200.7
 43.3884  28005.7
 43.4285  27740.6
 43.4685  27411.7
 43.5085  27085.9
 43.5485  26777.6
 43.5885  26644.7
 43.6285  26577.9
 43.6685  26531.6
 43.7085  26489.7
 43.7485  26320
 43.7885  26040.2
 43.8285  25631.6
 43.8685  25167.4
 43.9085  24679.1
 43.9486  24257.7
 43.9886  23907.9
 44.0286  23613.4
 44.0686  23389.2
 44.1086  23280.9
 44.1486  23263.9
 44.1886  23317.6
 44.2286  23432.2
 44.2686  23679.8
 44.3086  23960.4
 44.3486  24278.9
 44.3886  24666.1
 44.4286  25117.3
 44.4687  25652.3
 44.5087  26303.7
 44.5487  27106.1
 44.5887  28029.9
 44.6287  29034.3
 44.6687  30046.6
 44.7087  30887.9
 44.7487  31418.3
 44.7887  31596.8
 44.8287  31424.2
 44.8687  31023
 44.9087  30446.3
 44.9487  29820.2
 44.9888  29208.5
 45.0288  28735.9
 45.0688  28424.4
 45.1088  28333.9
 45.1488  28432.4
 45.1888  28706.5
 45.2288  29116.9
 45.2688  29552.7
 45.3088  29956.6
 45.3488  30185.1
 45.3888  30217.8
 45.4288  30176.5
 45.4688  30158.3
 45.5089  30174.6
 45.5489  30367.9
 45.5889  30660.7
 45.6289  30978.9
 45.6689  31184.3
 45.7089  31322
 45.7489  31163.5
 45.7889  30690.2
 45.8289  30054.9
 45.8689  29315.9
 45.9089  28504.7
 45.9489  27776.8
 45.9889  27116.3
 46.029  26568.2
 46.069  26133.1
 46.109  25833
 46.149  25664.1
 46.189  25584.6
 46.229  25588.1
 46.269  25668.1
 46.309  25757.2
 46.349  25946.2
 46.389  26167.2
 46.429  26481.6
 46.469  26915.2
 46.509  27494.8
 46.5491  28123.3
 46.5891  28757.3
 46.6291  29346.1
 46.6691  29699.1
 46.7091  29870.5
 46.7491  29766.3
 46.7891  29449.2
 46.8291  29029.6
 46.8691  28517.8
 46.9091  28046.1
 46.9491  27723.7
 46.9891  27485.1
 47.0292  27397.5
 47.0692  27508.7
 47.1092  27683.7
 47.1492  27918.9
 47.1892  28136
 47.2292  28239.5
 47.2692  28219.5
 47.3092  28082.1
 47.3492  27888.1
 47.3892  27716.8
 47.4292  27677.1
 47.4692  27669
 47.5092  27632
 47.5493  27551.4
 47.5893  27364.5
 47.6293  26997.2
 47.6693  26522.6
 47.7093  25973.6
 47.7493  25463.4
 47.7893  24968.1
 47.8293  24529.1
 47.8693  24216.3
 47.9093  24000.5
 47.9493  23960.7
 47.9893  23989.5
 48.0293  24069.8
 48.0694  24234.2
 48.1094  24358.3
 48.1494  24539.5
 48.1894  24922.2
 48.2294  25211.4
 48.2694  25470.4
 48.3094  25810.4
 48.3494  26173.7
 48.3894  26651.7
 48.4294  27094.5
 48.4694  27379.3
 48.5094  27505.6
 48.5494  27233.1
 48.5895  26936.2
 48.6295  26406.2
 48.6695  25779.6
 48.7095  25075.9
 48.7495  24417
 48.7895  23715.1
 48.8295  23301.6
 48.8695  22960.4
 48.9095  22737
 48.9495  22508.7
 48.9895  22408.9
 49.0295  22275.7
 49.0695  22217.1
 49.1096  22223.4
 49.1496  22227.6
 49.1896  22286.8
 49.2296  22370.7
 49.2696  22540.7
 49.3096  22727.3
 49.3496  22843.2
 49.3896  22981.3
 49.4296  23049.8
 49.4696  23033.8
 49.5096  22837.3
 49.5496  22660.9
 49.5896  22436.3
 49.6297  22328.3
 49.6697  22144.2
 49.7097  21799.7
 49.7497  21601.4
 49.7897  21449.9
 49.8297  21339.7
 49.8697  21291.6
 49.9097  21325.5
 49.9497  21464.9
 49.9897  21749.4
 50.0297  21945.1
 50.0697  22272.9
 50.1097  22712.9
 50.1498  23204.2
 50.1898  23750.7
 50.2298  24302.6
 50.2698  24820.1
 50.3098  25224.4
 50.3498  25497.8
 50.3898  25642.1
 50.4298  25518.7
 50.4698  25333.6
 50.5098  25003.1
 50.5498  24760.4
 50.5898  24549.3
 50.6299  24484.9
 50.6699  24473.5
 50.7099  24513.1
 50.7499  24629.7
 50.7899  24831.6
 50.8299  24993.4
 50.8699  25172.1
 50.9099  25241.6
 50.9499  25318.2
 50.9899  25372.5
 51.0299  25565
 51.0699  25710.1
 51.1099  25806.2
 51.15  25890
 51.19  25750.1
 51.23  25438.1
 51.27  25032.2
 51.31  24578
 51.35  23964
 51.39  23431.4
 51.43  22917.8
 51.47  22571.5
 51.51  22209.5
 51.55  21939.5
 51.59  21751.9
 51.63  21611.8
 51.6701  21595.9
 51.7101  21646.5
 51.7501  21696.3
 51.7901  21824.8
 51.8301  22011.2
 51.8701  22286.3
 51.9101  22652.9
 51.9501  22973.8
 51.9901  23455.2
 52.0301  23743
 52.0701  24007.4
 52.1101  24108
 52.1501  24140.9
 52.1902  24010.9
 52.2302  23819.6
 52.2702  23521.2
 52.3102  23281.7
 52.3502  23037
 52.3902  22856.4
 52.4302  22721.9
 52.4702  22646.8
 52.5102  22642.3
 52.5502  22656.5
 52.5902  22719.3
 52.6302  22516.2
 52.6703  22344.8
 52.7103  22109.8
 52.7503  21999.5
 52.7903  21866.6
 52.8303  21842.7
 52.8703  21729.6
 52.9103  21623.4
 52.9503  21492.5
 52.9903  21339.8
 53.0303  21186.3
 53.0703  21084.5
 53.1103  20833.6
 53.1503  20770
 53.1904  20620.4
 53.2304  20587.2
 53.2704  20600.2
 53.3104  20681
 53.3504  20710.6
 53.3904  20838
 53.4304  20971.7
 53.4704  21113.2
 53.5104  21260.6
 53.5504  21512.9
 53.5904  21715.9
 53.6304  21977.8
 53.6704  22149.7
 53.7105  22460.6
 53.7505  22637
 53.7905  22710.3
 53.8305  22654
 53.8705  22553.7
 53.9105  22354.6
 53.9505  22046.3
 53.9905  21641.9
 54.0305  21397.6
 54.0705  21117.3
 54.1105  20827.7
 54.1505  20615
 54.1905  20437.4
 54.2306  20383.9
 54.2706  20277.2
 54.3106  20234.7
 54.3506  20117.4
 54.3906  20123.7
 54.4306  19925.3
 54.4706  19899.4
 54.5106  19856.4
 54.5506  19778.2
 54.5906  19716.5
 54.6306  19669.1
 54.6706  19593.2
 54.7106  19403.6
 54.7507  19252.6
 54.7907  19084.8
 54.8307  18994.6
 54.8707  18928.5
 54.9107  18838.2
 54.9507  18876
 54.9907  18907.2
 55.0307  18905.3
 55.0707  19018.9
 55.1107  19085.1
 55.1507  19173.7
 55.1907  19370.4
 55.2307  19496.7
 55.2708  19578
 55.3108  19800
 55.3508  19990.9
 55.3908  20177.4
 55.4308  20284.9
 55.4708  20451.1
 55.5108  20503.6
 55.5508  20516.4
 55.5908  20418.7
 55.6308  20437.5
 55.6708  20424
 55.7108  20338.4
 55.7508  20383.7
 55.7909  20460.3
 55.8309  20550
 55.8709  20705.6
 55.9109  20929
 55.9509  21015.2
 55.9909  21095.8
 56.0309  21313.2
 56.0709  21310.6
 56.1109  21378.5
 56.1509  21619.2
 56.1909  21596.8
 56.2309  21698
 56.2709  21620.8
 56.311  21575.6
 56.351  21354.3
 56.391  21068.5
 56.431  20646.3
 56.471  20304.9
 56.511  19941
 56.551  19609.4
 56.591  19325.5
 56.631  19141.9
 56.671  18852.6
 56.711  18716.3
 56.751  18440.9
 56.791  18499.1
 56.8311  18319.8
 56.8711  18242.7
 56.9111  18035.4
 56.9511  18192.4
 56.9911  18328
 57.0311  18228.7
 57.0711  18238.1
 57.1111  18085.2
 57.1511  18103
 57.1911  18025
 57.2311  17659.4
 57.2711  17500
 57.3112  17413.4
 57.3512  17002.4
 57.3912  16744.5
 57.4312  16533.6
 57.4712  16273.2
 57.5112  15895.8
 57.5512  15911
 57.5912  15460.8
 57.6312  14872.4
 57.6712  14333.4
 57.7112  14973.7
 57.7512  14885.9
 57.7912  14670.4
 57.8313  14531.9
 57.8713  14555.3
 57.9113  14845.4
 57.9513  14912.1
 57.9913  14978.9
 58.0313  15011.1
 58.0713  14885.7
 58.1113  14156
 58.1513  13892.6
 58.1913  13190.6
 58.2313  12852.1
 58.2713  11749.5
 58.3113  10492.3
 58.3514  8258.26
 58.3914  7475.66
 58.4314  7032.15
 58.4714  6514.46
 58.5114  4810.04
 58.5514  3400.49
 58.5914  2364.48