File: pdfgetxn3-examples/Pt/series/Pt_bulk_ramp03-00907.chi
Pt_bulk_ramp03-00907.tif: 2-theta Scan
2-Theta Angle (Degrees)

       1465
 0.0200039  0.0000000E+00
 0.0600117  0.0000000E+00
 0.100019  0.0000000E+00
 0.140027  0.0000000E+00
 0.180035  0.0000000E+00
 0.220043  0.0000000E+00
 0.260051  0.0000000E+00
 0.300058  0.0000000E+00
 0.340066  0.0000000E+00
 0.380074  0.0000000E+00
 0.420082  0.0000000E+00
 0.46009  0.0000000E+00
 0.500097  0.0000000E+00
 0.540105  0.0000000E+00
 0.580113  0.0000000E+00
 0.620121  0.0000000E+00
 0.660128  0.0000000E+00
 0.700136  0.0000000E+00
 0.740144  16192.5
 0.780152  18866.8
 0.82016  29685.2
 0.860167  48949.3
 0.900175  75198
 0.940183  89602.4
 0.980191  89849
 1.0202  84638.5
 1.06021  78373.1
 1.10021  73935.7
 1.14022  69618.7
 1.18023  65958.3
 1.22024  63072.2
 1.26025  60529.3
 1.30025  58457.8
 1.34026  56789.6
 1.38027  55277.7
 1.42028  54149.5
 1.46028  53141.4
 1.50029  52282.7
 1.5403  51591
 1.58031  50874.3
 1.62032  50178.7
 1.66032  49657.7
 1.70033  49438.7
 1.74034  49765.6
 1.78035  50186.8
 1.82035  49903
 1.86036  48893.8
 1.90037  47746.3
 1.94038  47268
 1.98039  47328.4
 2.02039  47715.7
 2.0604  48042
 2.10041  48063.5
 2.14042  47808.8
 2.18042  47574.3
 2.22043  47504.4
 2.26044  47650.2
 2.30045  47754
 2.34046  47955.1
 2.38046  48168.8
 2.42047  48386
 2.46048  48697.4
 2.50049  49114.2
 2.54049  49645
 2.5805  50023.3
 2.62051  50170.5
 2.66052  49894.3
 2.70053  49191.4
 2.74053  48305.4
 2.78054  47352.7
 2.82055  46630.4
 2.86056  46110.7
 2.90056  45612.4
 2.94057  45012.4
 2.98058  44058.7
 3.02059  42963.5
 3.0606  42088.8
 3.1006  41402.7
 3.14061  40858.9
 3.18062  40426
 3.22063  40077.6
 3.26063  39868.5
 3.30064  39822.6
 3.34065  39951.3
 3.38066  40253.6
 3.42067  40596.8
 3.46067  40750
 3.50068  40662.8
 3.54069  40523.6
 3.5807  40479.2
 3.6207  40508.2
 3.66071  40499.1
 3.70072  40428.9
 3.74073  40300.8
 3.78074  40119.8
 3.82074  39883.5
 3.86075  39710.7
 3.90076  39587.8
 3.94077  39484.1
 3.98077  39483.9
 4.02078  39605.5
 4.06079  39806
 4.1008  40069.7
 4.14081  40363.1
 4.18081  40709.7
 4.22082  41089.3
 4.26083  41537.4
 4.30084  42111.8
 4.34084  42836.8
 4.38085  43754.9
 4.42086  44858.3
 4.46087  46164.5
 4.50088  47688.5
 4.54088  49413.7
 4.58089  51373.4
 4.6209  53654
 4.66091  56314.9
 4.70091  59419.1
 4.74092  63136.6
 4.78093  67675
 4.82094  73361.2
 4.86095  80399.4
 4.90095  89280.6
 4.94096  100817
 4.98097  115751
 5.02098  136134
 5.06098  164622
 5.10099  205215
 5.141  270084
 5.18101  383717
 5.22102  607558
 5.26102  1.09903e+06
 5.30103  2.02378e+06
 5.34104  3.15648e+06
 5.38105  3.67733e+06
 5.42105  3.67786e+06
 5.46106  3.13337e+06
 5.50107  2.00196e+06
 5.54108  1.04979e+06
 5.58109  564198
 5.62109  349133
 5.6611  247142
 5.70111  196923
 5.74112  170537
 5.78113  157345
 5.82113  153486
 5.86114  156915
 5.90115  168753
 5.94116  191636
 5.98116  232368
 6.02117  307793
 6.06118  449426
 6.10119  721179
 6.14119  1.17495e+06
 6.1812  1.71425e+06
 6.22121  2.07116e+06
 6.26122  1.97223e+06
 6.30123  1.49009e+06
 6.34123  924908
 6.38124  528382
 6.42125  305470
 6.46126  194302
 6.50127  136699
 6.54127  104403
 6.58128  85300.2
 6.62129  72878.8
 6.6613  64323.4
 6.7013  58280.9
 6.74131  53735
 6.78132  50275.3
 6.82133  47578.7
 6.86134  45340.9
 6.90134  43395.9
 6.94135  41703.2
 6.98136  40199.9
 7.02137  39010.7
 7.06137  38030.3
 7.10138  37170.9
 7.14139  36457.1
 7.1814  35841.6
 7.2214  35312.1
 7.26141  34867.1
 7.30142  34502.5
 7.34143  34225.7
 7.38144  34034
 7.42144  33926.1
 7.46145  33839.9
 7.50146  33749.2
 7.54147  33692.4
 7.58148  33696
 7.62148  33758.4
 7.66149  33908.4
 7.7015  34157.5
 7.74151  34504
 7.78151  34874.2
 7.82152  35321.3
 7.86153  35845
 7.90154  36465.1
 7.94155  37257.9
 7.98155  38163.7
 8.02156  39165
 8.06157  40335.4
 8.10158  41709.8
 8.14158  43371.5
 8.18159  45402.2
 8.2216  47848.3
 8.26161  50854.7
 8.30162  54627.5
 8.34162  59420.7
 8.38163  65633.9
 8.42164  73906.1
 8.46165  85106.4
 8.50165  100964
 8.54166  124832
 8.58167  162982
 8.62168  229952
 8.66169  355610
 8.70169  582233
 8.7417  937670
 8.78171  1.31895e+06
 8.82172  1.52235e+06
 8.86172  1.3976e+06
 8.90173  1.04118e+06
 8.94174  659791
 8.98175  392109
 9.02176  240991
 9.06176  160969
 9.10177  118799
 9.14178  95196.2
 9.18179  80980.7
 9.22179  72116.1
 9.2618  66262.9
 9.30181  62287.7
 9.34182  59671.6
 9.38183  57947.5
 9.42183  56870.9
 9.46184  56408.7
 9.50185  56397
 9.54186  56794.8
 9.58186  57623.7
 9.62187  58914.7
 9.66188  60754.2
 9.70189  63177.8
 9.7419  66387.3
 9.7819  70480.6
 9.82191  75643.9
 9.86192  82361.6
 9.90193  91050.1
 9.94193  102847
 9.98194  119073
 10.022  141677
 10.062  175088
 10.102  227833
 10.142  315635
 10.182  470123
 10.222  736157
 10.262  1.12468e+06
 10.302  1.54503e+06
 10.342  1.77441e+06
 10.382  1.6712e+06
 10.422  1.29623e+06
 10.462  874793
 10.502  556050
 10.5421  367804
 10.5821  274371
 10.6221  242425
 10.6621  262062
 10.7021  334434
 10.7421  450319
 10.7821  555995
 10.8221  578973
 10.8621  494930
 10.9021  356702
 10.9421  232931
 10.9821  151530
 11.0221  106260
 11.0622  81481.9
 11.1022  67345.4
 11.1422  58735.5
 11.1822  53010.6
 11.2222  48977.1
 11.2622  46015.7
 11.3022  43759
 11.3422  41996
 11.3822  40599.9
 11.4222  39451.9
 11.4622  38526.9
 11.5022  37749.3
 11.5422  37036.6
 11.5823  36433
 11.6223  35974.2
 11.6623  35602.1
 11.7023  35351.2
 11.7423  35216.3
 11.7823  35204.2
 11.8223  35340.5
 11.8623  35607.6
 11.9023  36068.4
 11.9423  36849.4
 11.9823  38104.3
 12.0223  40155.9
 12.0623  41567
 12.1024  43397.5
 12.1424  46167.7
 12.1824  50717.6
 12.2224  57444.3
 12.2624  67861
 12.3024  84271
 12.3424  110194
 12.3824  147390
 12.4224  190184
 12.4624  222797
 12.5024  227102
 12.5424  200793
 12.5824  158327
 12.6225  118239
 12.6625  89258.4
 12.7025  70888.5
 12.7425  60037.7
 12.7825  53786.1
 12.8225  50267.6
 12.8625  48513.3
 12.9025  47884.2
 12.9425  48088
 12.9825  48967.7
 13.0225  50456.8
 13.0625  52613.9
 13.1026  55553.1
 13.1426  59407
 13.1826  64463.3
 13.2226  71138.2
 13.2626  80095.3
 13.3026  92531.3
 13.3426  110422
 13.3826  137781
 13.4226  181900
 13.4626  254833
 13.5026  369094
 13.5426  519186
 13.5826  658079
 13.6227  718386
 13.6627  668839
 13.7027  551022
 13.7427  434960
 13.7827  369376
 13.8227  369345
 13.8627  431075
 13.9027  530534
 13.9427  614735
 13.9827  626645
 14.0227  550217
 14.0627  425006
 14.1027  302227
 14.1428  210625
 14.1828  150846
 14.2228  113834
 14.2628  91147.7
 14.3028  76907.1
 14.3428  67580.3
 14.3828  61265.7
 14.4228  56883.6
 14.4628  53777.1
 14.5028  51555.4
 14.5428  50015.8
 14.5828  49004.7
 14.6228  48421
 14.6629  48262.6
 14.7029  48540.5
 14.7429  49234.9
 14.7829  50456.6
 14.8229  52278.4
 14.8629  54854.5
 14.9029  58454.3
 14.9429  63413.9
 14.9829  70384.2
 15.0229  80465
 15.0629  95532.8
 15.1029  119139
 15.1429  156909
 15.183  215950
 15.223  296230
 15.263  379149
 15.303  428395
 15.343  416111
 15.383  350305
 15.423  265096
 15.463  190964
 15.503  138760
 15.543  105717
 15.583  85798.6
 15.623  74027.9
 15.663  67206.9
 15.7031  63578.2
 15.7431  62220.2
 15.7831  62691.4
 15.8231  64880.3
 15.8631  68964.1
 15.9031  75415.5
 15.9431  85136.8
 15.9831  99737.6
 16.0231  122096
 16.0631  156845
 16.1031  209558
 16.1431  282089
 16.1831  362359
 16.2232  420739
 16.2632  427330
 16.3032  377861
 16.3432  297838
 16.3832  218957
 16.4232  157887
 16.4632  116336
 16.5032  89552.9
 16.5432  72376.5
 16.5832  61177.8
 16.6232  53703.2
 16.6632  48568.4
 16.7033  44895.2
 16.7433  42230.4
 16.7833  40259.8
 16.8233  38833
 16.8633  37771.4
 16.9033  36964.3
 16.9433  36381
 16.9833  36005.4
 17.0233  35810
 17.0633  35764.8
 17.1033  35930.5
 17.1433  36241.8
 17.1833  36740.3
 17.2234  37486.2
 17.2634  38524.1
 17.3034  39959.2
 17.3434  41885.1
 17.3834  44530.4
 17.4234  48262.1
 17.4634  53661
 17.5034  61836.1
 17.5434  74242.9
 17.5834  92035.2
 17.6234  113879
 17.6634  133757
 17.7034  143247
 17.7435  137923
 17.7835  121286
 17.8235  101333
 17.8635  84348.4
 17.9035  72565.6
 17.9435  65558.1
 17.9835  62188.9
 18.0235  61535.4
 18.0635  63074.9
 18.1035  66463.2
 18.1435  71862.7
 18.1835  79784.6
 18.2235  91163.4
 18.2636  107672
 18.3036  132260
 18.3436  169247
 18.3836  223103
 18.4236  293195
 18.4636  366035
 18.5036  416707
 18.5436  425286
 18.5836  395332
 18.6236  351650
 18.6636  319847
 18.7036  309178
 18.7436  309680
 18.7837  302263
 18.8237  274621
 18.8637  230152
 18.9037  181946
 18.9437  140773
 18.9837  110361
 19.0237  89482
 19.0637  75556.4
 19.1037  66267.1
 19.1437  60019.7
 19.1837  55810.8
 19.2237  52975.5
 19.2637  51138.8
 19.3038  50112.1
 19.3438  49844.7
 19.3838  50286.5
 19.4238  51525.6
 19.4638  53735.9
 19.5038  57197.1
 19.5438  62417.2
 19.5838  70187.5
 19.6238  81535.5
 19.6638  97381.4
 19.7038  117386
 19.7438  138038
 19.7839  152601
 19.8239  154873
 19.8639  143755
 19.9039  124346
 19.9439  103603
 19.9839  86076.4
 20.0239  73278
 20.0639  64729.3
 20.1039  59479.3
 20.1439  56794.2
 20.1839  56113.1
 20.2239  57200.9
 20.2639  60191.6
 20.304  65501.7
 20.344  74037.5
 20.384  87120.4
 20.424  105997
 20.464  129477
 20.504  152597
 20.544  168140
 20.584  172008
 20.624  167352
 20.664  161603
 20.704  159701
 20.744  159915
 20.784  156401
 20.8241  144716
 20.8641  125880
 20.9041  104779
 20.9441  85796.6
 20.9841  70982.1
 21.0241  60287.3
 21.0641  52784.3
 21.1041  47585.5
 21.1441  43994.9
 21.1841  41529.2
 21.2241  39857.1
 21.2641  38761.3
 21.3041  38105.1
 21.3442  37874.8
 21.3842  38021.1
 21.4242  38543.7
 21.4642  39594.5
 21.5042  41360.7
 21.5442  44185.4
 21.5842  48340.8
 21.6242  53826
 21.6642  59733.3
 21.7042  64149.8
 21.7442  65308
 21.7842  63041.6
 21.8242  58844.5
 21.8643  54717.4
 21.9043  51848.4
 21.9443  50662.3
 21.9843  51094.8
 22.0243  53054
 22.0643  56566.5
 22.1043  61884.1
 22.1443  69583.3
 22.1843  80537.4
 22.2243  95988.7
 22.2643  116892
 22.3043  142336
 22.3443  167995
 22.3844  186831
 22.4244  193292
 22.4644  187805
 22.5044  176306
 22.5444  164789
 22.5844  154936
 22.6244  144289
 22.6644  130497
 22.7044  113891
 22.7444  97094.7
 22.7844  82500.8
 22.8244  71175.4
 22.8644  63007.2
 22.9045  57416
 22.9445  53766.7
 22.9845  51617.8
 23.0245  50683.6
 23.0645  50750.4
 23.1045  51771.6
 23.1445  53830.3
 23.1845  57168.8
 23.2245  62184.7
 23.2645  69606.1
 23.3045  80476.8
 23.3445  95722.2
 23.3846  115052
 23.4246  135510
 23.4646  150962
 23.5046  155435
 23.5446  147459
 23.5846  131134
 23.6246  112689
 23.6646  96824.1
 23.7046  85395.5
 23.7446  78449.3
 23.7846  75490.8
 23.8246  76164.3
 23.8646  80469
 23.9047  88899.4
 23.9447  102358
 23.9847  121360
 24.0247  144535
 24.0647  166995
 24.1047  181079
 24.1447  180737
 24.1847  165897
 24.2247  142367
 24.2647  117369
 24.3047  95709.4
 24.3447  78803.4
 24.3847  66298.9
 24.4248  57266.5
 24.4648  50774.8
 24.5048  46050.8
 24.5448  42614.7
 24.5848  40072.6
 24.6248  38184.8
 24.6648  36788.7
 24.7048  35792.1
 24.7448  35095.5
 24.7848  34648.3
 24.8248  34450.4
 24.8648  34525
 24.9048  34880.8
 24.9449  35571.7
 24.9849  36569.3
 25.0249  37834.9
 25.0649  39163.5
 25.1049  40221.1
 25.1449  40738.1
 25.1849  40661.4
 25.2249  40175.7
 25.2649  39639.6
 25.3049  39403
 25.3449  39626.6
 25.3849  40471.7
 25.4249  42050.1
 25.465  44473.9
 25.505  47956.5
 25.545  52823.6
 25.585  59360.6
 25.625  67579.6
 25.665  76867.4
 25.705  86075.9
 25.745  94117.2
 25.785  100882
 25.825  106795
 25.865  111595
 25.905  113529
 25.945  110493
 25.9851  102158
 26.0251  90548.8
 26.0651  78391.2
 26.1051  67743.5
 26.1451  59414.3
 26.1851  53348.9
 26.2251  49143.6
 26.2651  46446.9
 26.3051  44925.9
 26.3451  44411.2
 26.3851  44837.6
 26.4251  46205.1
 26.4651  48656.8
 26.5052  52415.9
 26.5452  57562.6
 26.5852  63856.9
 26.6252  70303.8
 26.6652  75158.2
 26.7052  76877.7
 26.7452  75014.9
 26.7852  70584.6
 26.8252  65291.3
 26.8652  60686.7
 26.9052  57528.1
 26.9452  56125.2
 26.9853  56607.9
 27.0253  59079
 27.0653  63836.8
 27.1053  71136.7
 27.1453  80739.2
 27.1853  91364.3
 27.2253  100546
 27.2653  105793
 27.3053  106102
 27.3453  102516
 27.3853  96840
 27.4253  90163.8
 27.4653  82693.7
 27.5054  74624.3
 27.5454  66520.4
 27.5854  59171.1
 27.6254  53163.7
 27.6654  48567.5
 27.7054  45211.2
 27.7454  42903.5
 27.7854  41437.4
 27.8254  40705.7
 27.8654  40612.8
 27.9054  41149.2
 27.9454  42347.2
 27.9854  44296.7
 28.0255  47013.6
 28.0655  50294.6
 28.1055  53628.2
 28.1455  56198.2
 28.1855  57296.3
 28.2255  56868.3
 28.2655  55491.8
 28.3055  54050.3
 28.3455  53251.2
 28.3855  53564
 28.4255  55253.2
 28.4655  58606.2
 28.5055  63912.2
 28.5456  71408.2
 28.5856  80998
 28.6256  91738.4
 28.6656  101649
 28.7056  108586
 28.7456  111411
 28.7856  110510
 28.8256  106910
 28.8656  101259
 28.9056  93765.8
 28.9456  84766.6
 28.9856  75178.5
 29.0256  66167.3
 29.0657  58500.9
 29.1057  52408.3
 29.1457  47764.4
 29.1857  44376.5
 29.2257  41991.5
 29.2657  40426.2
 29.3057  39608.4
 29.3457  39526.7
 29.3857  40205.7
 29.4257  41664
 29.4657  43839.1
 29.5057  46315.1
 29.5458  48390.3
 29.5858  49342.7
 29.6258  48789.1
 29.6658  47107.9
 29.7058  45011.7
 29.7458  43220.2
 29.7858  42169
 29.8258  42016.4
 29.8658  42833.2
 29.9058  44608
 29.9458  47294.8
 29.9858  50545
 30.0258  53608
 30.0659  55502.6
 30.1059  55574.4
 30.1459  53700.6
 30.1859  50354.2
 30.2259  46419.3
 30.2659  42638.8
 30.3059  39411.5
 30.3459  36849.8
 30.3859  34922.4
 30.4259  33530.8
 30.4659  32568.8
 30.5059  31972.5
 30.5459  31692.4
 30.586  31715
 30.626  32026.3
 30.666  32677.8
 30.706  33699.9
 30.746  35135.4
 30.786  37031.6
 30.826  39295.3
 30.866  41591.5
 30.906  43427.5
 30.946  44431
 30.986  44552.3
 31.026  44083.2
 31.066  43617.4
 31.1061  43641.9
 31.1461  44453.9
 31.1861  46295.1
 31.2261  49375.9
 31.2661  53751.4
 31.3061  59313.2
 31.3461  65405.5
 31.3861  70817.7
 31.4261  74215.1
 31.4661  74964.7
 31.5061  73313
 31.5461  70012.2
 31.5861  65760.6
 31.6262  61096
 31.6662  56411.4
 31.7062  52106.6
 31.7462  48456.3
 31.7862  45622.1
 31.8262  43699.4
 31.8662  42634.1
 31.9062  42340
 31.9462  42823.5
 31.9862  44155.7
 32.0262  46381.4
 32.0662  49516.9
 32.1062  53427.2
 32.1463  57635.6
 32.1863  61226.7
 32.2263  63237.7
 32.2663  63110
 32.3063  61206.8
 32.3463  58330.8
 32.3863  55475.2
 32.4263  53403.1
 32.4663  52528.2
 32.5063  53002
 32.5463  54826.9
 32.5863  57845.5
 32.6264  61461
 32.6664  64766.3
 32.7064  66776
 32.7464  66922.1
 32.7864  65254.2
 32.8264  62192.3
 32.8664  58294.4
 32.9064  53932.9
 32.9464  49503.4
 32.9864  45384.1
 33.0264  41775.8
 33.0664  38756.7
 33.1064  36338.6
 33.1465  34447.7
 33.1865  33016.2
 33.2265  31910.6
 33.2665  31088.2
 33.3065  30512.4
 33.3465  30161.2
 33.3865  29961.1
 33.4265  29943.4
 33.4665  30075.8
 33.5065  30392.7
 33.5465  30924.9
 33.5865  31650
 33.6265  32636.7
 33.6666  33972.1
 33.7066  35720.8
 33.7466  38001.8
 33.7866  40883
 33.8266  44323.1
 33.8666  48217.9
 33.9066  52191
 33.9466  55762.8
 33.9866  58595
 34.0266  60327.2
 34.0666  60714.1
 34.1066  59538.5
 34.1466  56840.4
 34.1867  53101.1
 34.2267  49024.6
 34.2667  45278.9
 34.3067  42158.6
 34.3467  39797.8
 34.3867  38164.4
 34.4267  37193.6
 34.4667  36832.8
 34.5067  37050.8
 34.5467  37787.6
 34.5867  38872
 34.6267  40038.8
 34.6667  40892.2
 34.7068  41126.3
 34.7468  40634.8
 34.7868  39614.9
 34.8268  38407.1
 34.8668  37323.1
 34.9068  36586.1
 34.9468  36370.7
 34.9868  36644.7
 35.0268  37346.2
 35.0668  38180.1
 35.1068  38817.5
 35.1468  38891.9
 35.1868  38222.5
 35.2269  36897.7
 35.2669  35202
 35.3069  33453.5
 35.3469  31929.4
 35.3869  30678.1
 35.4269  29711.2
 35.4669  28991.3
 35.5069  28515.7
 35.5469  28220.9
 35.5869  28174.8
 35.6269  28295.4
 35.6669  28585.8
 35.7069  29055.7
 35.747  29712.7
 35.787  30556.6
 35.827  31475.6
 35.867  32394.9
 35.907  33325.9
 35.947  34291.8
 35.987  35445.2
 36.027  36903.3
 36.067  38832.2
 36.107  41365.6
 36.147  44590.3
 36.187  48375.1
 36.2271  52408
 36.2671  56087.1
 36.3071  58728
 36.3471  59887.6
 36.3871  59412.8
 36.4271  57587.2
 36.4671  54829.5
 36.5071  51526.3
 36.5471  48054.5
 36.5871  44790.2
 36.6271  41966.8
 36.6671  39727.5
 36.7071  38067
 36.7471  36914.9
 36.7872  36301.4
 36.8272  36221.2
 36.8672  36622.7
 36.9072  37402.8
 36.9472  38356.1
 36.9872  39269
 37.0272  39819.9
 37.0672  39862.7
 37.1072  39523.2
 37.1472  39067.8
 37.1872  38765
 37.2272  38872.2
 37.2672  39487.9
 37.3073  40686.2
 37.3473  42289.6
 37.3873  44050
 37.4273  45585.3
 37.4673  46551.1
 37.5073  46731.7
 37.5473  46075.7
 37.5873  44767.1
 37.6273  42913.8
 37.6673  40705.6
 37.7073  38491.1
 37.7473  36420
 37.7874  34686.9
 37.8274  33309.9
 37.8674  32310.1
 37.9074  31659.1
 37.9474  31329.4
 37.9874  31315.3
 38.0274  31537.5
 38.0674  31893.5
 38.1074  32253.3
 38.1474  32473
 38.1874  32507.9
 38.2274  32383
 38.2674  32233
 38.3075  32181.2
 38.3475  32434.4
 38.3875  32981.5
 38.4275  33747.6
 38.4675  34639
 38.5075  35501.7
 38.5475  36130.4
 38.5875  36292.8
 38.6275  35976.9
 38.6675  35281.9
 38.7075  34387.3
 38.7475  33480.4
 38.7875  32422.5
 38.8276  31613.9
 38.8676  31023.8
 38.9076  30701.9
 38.9476  30631.5
 38.9876  30883.7
 39.0276  31437.3
 39.0676  32288.5
 39.1076  33369.5
 39.1476  34573.5
 39.1876  35620.2
 39.2276  36315.9
 39.2676  36571.9
 39.3076  36400.9
 39.3477  36033.3
 39.3877  35713.5
 39.4277  35651.7
 39.4677  35958.2
 39.5077  36645.4
 39.5477  37554.5
 39.5877  38319.8
 39.6277  38621.2
 39.6677  38222.5
 39.7077  37139.9
 39.7477  35586.8
 39.7877  33860.8
 39.8278  32192.1
 39.8678  30767.5
 39.9078  29584.9
 39.9478  28668.7
 39.9878  28008
 40.0278  27522
 40.0678  27260.8
 40.1078  27110.8
 40.1478  27207.7
 40.1878  27317.9
 40.2278  27539
 40.2678  27788.8
 40.3078  27989.6
 40.3479  28145.4
 40.3879  28334.6
 40.4279  28544.5
 40.4679  28874.3
 40.5079  29370.6
 40.5479  30119.1
 40.5879  31105.1
 40.6279  32312
 40.6679  33645.8
 40.7079  35002
 40.7479  36178.7
 40.7879  36954
 40.8279  37164.7
 40.868  36773.6
 40.908  35898
 40.948  34759.8
 40.988  33582.6
 41.028  32510.7
 41.068  31711.5
 41.108  31199
 41.148  30985.9
 41.188  31067.1
 41.228  31392.6
 41.268  31898.3
 41.308  32409.5
 41.348  32831.6
 41.3881  33146.8
 41.4281  33349.3
 41.4681  33546.5
 41.5081  33927
 41.5481  34531.9
 41.5881  35422.6
 41.6281  36482.2
 41.6681  37508.2
 41.7081  38319.3
 41.7481  38630.7
 41.7881  38339.3
 41.8281  37498
 41.8681  36332.3
 41.9082  34937.7
 41.9482  33493.5
 41.9882  32197.4
 42.0282  31108.4
 42.0682  30240.4
 42.1082  29588.1
 42.1482  29139.3
 42.1882  28906.5
 42.2282  28840.3
 42.2682  28971.5
 42.3082  29163.4
 42.3482  29444.9
 42.3882  29777.9
 42.4283  30178.8
 42.4683  30696.7
 42.5083  31373.2
 42.5483  32246.4
 42.5883  33404.1
 42.6283  34782.5
 42.6683  36196.2
 42.7083  37528.1
 42.7483  38506
 42.7883  38972.4
 42.8283  38846.9
 42.8683  38125.2
 42.9083  36994.4
 42.9484  35575.6
 42.9884  34059.3
 43.0284  32617.5
 43.0684  31377.1
 43.1084  30315.4
 43.1484  29520.2
 43.1884  28997.9
 43.2284  28640.8
 43.2684  28463.6
 43.3084  28366.9
 43.3484  28255.1
 43.3884  28079
 43.4285  27795.5
 43.4685  27475.9
 43.5085  27175.4
 43.5485  26893.2
 43.5885  26730.7
 43.6285  26642.3
 43.6685  26607.7
 43.7085  26585.7
 43.7485  26444.1
 43.7885  26146.2
 43.8285  25731.2
 43.8685  25281.4
 43.9085  24795.3
 43.9486  24350
 43.9886  23963.1
 44.0286  23718.3
 44.0686  23527.6
 44.1086  23399.2
 44.1486  23383.5
 44.1886  23440.1
 44.2286  23581.3
 44.2686  23788.6
 44.3086  24065.9
 44.3486  24399.3
 44.3886  24762.6
 44.4286  25213.1
 44.4687  25759.7
 44.5087  26408.1
 44.5487  27194.2
 44.5887  28135.7
 44.6287  29129.7
 44.6687  30099.1
 44.7087  30899.8
 44.7487  31445.6
 44.7887  31586.5
 44.8287  31443.6
 44.8687  31044.8
 44.9087  30453
 44.9487  29836
 44.9888  29255.4
 45.0288  28777.4
 45.0688  28508.2
 45.1088  28401.6
 45.1488  28500
 45.1888  28784.9
 45.2288  29180.2
 45.2688  29615.1
 45.3088  29995.3
 45.3488  30230.3
 45.3888  30289.4
 45.4288  30221.7
 45.4688  30213.9
 45.5089  30212.4
 45.5489  30407.1
 45.5889  30682.6
 45.6289  31034.5
 45.6689  31243.6
 45.7089  31316.8
 45.7489  31135
 45.7889  30696.9
 45.8289  30093.3
 45.8689  29353
 45.9089  28556.7
 45.9489  27791.6
 45.9889  27128.2
 46.029  26604.8
 46.069  26218.3
 46.109  25924.2
 46.149  25767.4
 46.189  25686.8
 46.229  25696.8
 46.269  25770.7
 46.309  25879.8
 46.349  26027.4
 46.389  26258.7
 46.429  26581.4
 46.469  27021.1
 46.509  27565.5
 46.5491  28194.4
 46.5891  28824.5
 46.6291  29387.6
 46.6691  29736.5
 46.7091  29872.4
 46.7491  29786.2
 46.7891  29460
 46.8291  29005
 46.8691  28524
 46.9091  28070.4
 46.9491  27728
 46.9891  27545.1
 47.0292  27468.7
 47.0692  27559.1
 47.1092  27717
 47.1492  27948.3
 47.1892  28151.2
 47.2292  28250.7
 47.2692  28193.3
 47.3092  28077.9
 47.3492  27914.2
 47.3892  27749.2
 47.4292  27688
 47.4692  27689.9
 47.5092  27660.2
 47.5493  27545.6
 47.5893  27367.8
 47.6293  27008.6
 47.6693  26569.1
 47.7093  26015.8
 47.7493  25482.3
 47.7893  24993.5
 47.8293  24594.2
 47.8693  24268.6
 47.9093  24085.6
 47.9493  24015.4
 47.9893  24039.3
 48.0293  24129.5
 48.0694  24281.1
 48.1094  24371.2
 48.1494  24553.1
 48.1894  24939.7
 48.2294  25224.5
 48.2694  25505.7
 48.3094  25815.4
 48.3494  26186.4
 48.3894  26650.6
 48.4294  27082.6
 48.4694  27356.7
 48.5094  27463.6
 48.5494  27213.3
 48.5895  26892.6
 48.6295  26371.4
 48.6695  25760.5
 48.7095  25071.2
 48.7495  24411.5
 48.7895  23726.9
 48.8295  23329.5
 48.8695  22990.9
 48.9095  22772.7
 48.9495  22578.7
 48.9895  22456.4
 49.0295  22323.2
 49.0695  22253.5
 49.1096  22266.3
 49.1496  22260.5
 49.1896  22308.6
 49.2296  22440.5
 49.2696  22586.5
 49.3096  22740.6
 49.3496  22888.2
 49.3896  22986.1
 49.4296  23040.7
 49.4696  23046.6
 49.5096  22862.6
 49.5496  22654.8
 49.5896  22435.4
 49.6297  22278.3
 49.6697  22101.4
 49.7097  21822.5
 49.7497  21641.2
 49.7897  21479.3
 49.8297  21340.4
 49.8697  21307.3
 49.9097  21389.9
 49.9497  21513.6
 49.9897  21753.7
 50.0297  21996.4
 50.0697  22306
 50.1097  22732.9
 50.1498  23249.4
 50.1898  23832
 50.2298  24367.8
 50.2698  24869.2
 50.3098  25235.9
 50.3498  25497.1
 50.3898  25580
 50.4298  25476.9
 50.4698  25288.8
 50.5098  25001.8
 50.5498  24755
 50.5898  24571.4
 50.6299  24477.5
 50.6699  24462.6
 50.7099  24526.6
 50.7499  24665.7
 50.7899  24823.2
 50.8299  25001.1
 50.8699  25160.1
 50.9099  25202
 50.9499  25325.3
 50.9899  25398.3
 51.0299  25545.2
 51.0699  25688.5
 51.1099  25742.9
 51.15  25846.9
 51.19  25744.2
 51.23  25416.5
 51.27  24987.8
 51.31  24518.3
 51.35  23914.8
 51.39  23362.9
 51.43  22912.5
 51.47  22579.8
 51.51  22220.7
 51.55  21940.1
 51.59  21786.8
 51.63  21624.3
 51.6701  21617.4
 51.7101  21675.6
 51.7501  21763.4
 51.7901  21852.9
 51.8301  22012.6
 51.8701  22352
 51.9101  22710.5
 51.9501  23004.8
 51.9901  23421.9
 52.0301  23722.6
 52.0701  24000.4
 52.1101  24143.8
 52.1501  24153.5
 52.1902  24017.3
 52.2302  23809.1
 52.2702  23481.5
 52.3102  23256.2
 52.3502  23054.5
 52.3902  22877.8
 52.4302  22722.3
 52.4702  22662.6
 52.5102  22620.3
 52.5502  22656.2
 52.5902  22365.7
 52.6302  22504.7
 52.6703  22332.8
 52.7103  22166.6
 52.7503  21986.7
 52.7903  21865.7
 52.8303  21803.5
 52.8703  21722.7
 52.9103  21592.9
 52.9503  21493.1
 52.9903  21301.4
 53.0303  21141.3
 53.0703  21027.1
 53.1103  20837.1
 53.1503  20794
 53.1904  20626
 53.2304  20606.6
 53.2704  20574.7
 53.3104  20661.5
 53.3504  20795.4
 53.3904  20859.7
 53.4304  20998.4
 53.4704  21153.8
 53.5104  21292.2
 53.5504  21474.4
 53.5904  21644.3
 53.6304  21872.7
 53.6704  22109.1
 53.7105  22425.4
 53.7505  22584.1
 53.7905  22694
 53.8305  22696.1
 53.8705  22563.1
 53.9105  22334.3
 53.9505  22038.6
 53.9905  21657.9
 54.0305  21373.9
 54.0705  21051.5
 54.1105  20823.3
 54.1505  20647.1
 54.1905  20450
 54.2306  20397.3
 54.2706  20334
 54.3106  20233.3
 54.3506  20158.7
 54.3906  20079.2
 54.4306  19880.7
 54.4706  19855.5
 54.5106  19832.1
 54.5506  19716.9
 54.5906  19712.7
 54.6306  19656.4
 54.6706  19537.4
 54.7106  19436.6
 54.7507  19327.2
 54.7907  19138.8
 54.8307  19023.5
 54.8707  18940.6
 54.9107  18851.6
 54.9507  18897.7
 54.9907  18959.9
 55.0307  18991.4
 55.0707  19096.9
 55.1107  19058.8
 55.1507  19146.5
 55.1907  19388
 55.2307  19511.1
 55.2708  19543.2
 55.3108  19782.2
 55.3508  20033.9
 55.3908  20165.5
 55.4308  20210.8
 55.4708  20350.9
 55.5108  20429.8
 55.5508  20448.9
 55.5908  20374
 55.6308  20423
 55.6708  20314.5
 55.7108  20314.2
 55.7508  20375.5
 55.7909  20431.4
 55.8309  20685.3
 55.8709  20765.4
 55.9109  20821.5
 55.9509  20986.3
 55.9909  21056.3
 56.0309  21303
 56.0709  21120.6
 56.1109  21316.6
 56.1509  21518.9
 56.1909  21495.2
 56.2309  21668.8
 56.2709  21582.1
 56.311  21480.3
 56.351  21269.8
 56.391  21050.1
 56.431  20525.2
 56.471  20266.9
 56.511  20309.2
 56.551  19738.2
 56.591  19296.7
 56.631  18860.6
 56.671  18819
 56.711  18619.6
 56.751  18511.3
 56.791  18477
 56.8311  18224.2
 56.8711  18127.3
 56.9111  18144.6
 56.9511  18234.3
 56.9911  18241.5
 57.0311  18092.6
 57.0711  18161.4
 57.1111  18140.4
 57.1511  18025.8
 57.1911  17966.3
 57.2311  17747
 57.2711  17479.1
 57.3112  17298.7
 57.3512  16924.3
 57.3912  16845.9
 57.4312  16506.5
 57.4712  16353.8
 57.5112  15970.7
 57.5512  15901.9
 57.5912  15317.4
 57.6312  14802.9
 57.6712  14627.6
 57.7112  14838.2
 57.7512  14841
 57.7912  14486.5
 57.8313  14500.8
 57.8713  14561.5
 57.9113  14772.6
 57.9513  14807.9
 57.9913  15019.7
 58.0313  15092.5
 58.0713  14417.8
 58.1113  14046.5
 58.1513  13740.4
 58.1913  12897.9
 58.2313  12456.2
 58.2713  11644.3
 58.3113  10331.5
 58.3514  8225.48
 58.3914  7693.28
 58.4314  6955.32
 58.4714  6544.96
 58.5114  4534.87
 58.5514  2692.19
 58.5914  1725.21